"Time (s)","Linear Acceleration x (m/s^2)","Linear Acceleration y (m/s^2)","Linear Acceleration z (m/s^2)"
6.212470400E-2,2.018820047E-1,-5.930280685E-1,3.508960247E0
6.714288100E-2,1.685038209E-1,-4.428129196E-1,2.883524418E0
7.216105800E-2,7.405316830E-2,-3.387765884E-1,2.382249355E0
7.717928700E-2,-1.036322713E-1,-2.386255264E-1,1.829883099E0
8.219746400E-2,-2.451045215E-1,-1.311359406E-1,1.344074726E0
8.735517200E-2,-3.587276936E-1,-2.527999878E-2,9.402611256E-1
9.237335000E-2,-3.521088362E-1,6.907272339E-2,5.241744518E-1
9.739157900E-2,-2.437785417E-1,1.552829742E-1,6.950449944E-2
1.024097560E-1,-1.403521597E-1,1.872911453E-1,-2.148754597E-1
1.074279330E-1,-7.920822501E-2,1.541814804E-1,-2.516303062E-1
1.124461100E-1,3.077960014E-2,1.311731339E-1,-1.194524765E-2
1.176164220E-1,1.878081262E-1,1.441202164E-1,2.423405647E-1
1.226346000E-1,3.865700960E-1,1.479387283E-1,3.491809368E-1
1.276528290E-1,5.496603251E-1,6.663513184E-2,3.760423660E-1
1.326710060E-1,5.988666415E-1,-1.643848419E-2,3.429787159E-1
1.376892350E-1,6.105596423E-1,-4.946422577E-2,3.183987141E-1
1.428352770E-1,5.659235716E-1,-7.824897766E-2,2.489655018E-1
1.478534540E-1,4.807025194E-1,-1.899862289E-1,1.574201584E-1
1.528716310E-1,4.246916771E-1,-2.716302872E-1,2.843785286E-1
1.578898080E-1,4.674663544E-1,-1.989746094E-1,5.274856091E-1
1.629080370E-1,4.764940739E-1,-1.389417648E-1,6.351873875E-1
1.679262140E-1,3.402836323E-1,-1.968011856E-1,7.288126945E-1
1.730663700E-1,6.364059448E-2,-2.645673752E-1,8.415193558E-1
1.780845470E-1,-2.858161926E-1,-2.984399796E-1,6.991791725E-1
1.831027250E-1,-4.759535491E-1,-3.803215027E-1,3.653490543E-1
1.881209020E-1,-5.524443388E-1,-4.947109222E-1,1.090195179E-1
1.931390790E-1,-5.726894140E-1,-5.017309189E-1,-3.392100334E-2
1.981573080E-1,-6.408017874E-1,-5.299434662E-1,-1.742506027E-1
2.031754330E-1,-4.768522680E-1,-5.972566605E-1,-2.172837257E-1
2.081936620E-1,-2.868086696E-1,-6.098337173E-1,-3.796887398E-2
2.132118390E-1,-1.757347286E-1,-5.694713593E-1,2.208013535E-1
2.182300160E-1,-1.245766282E-1,-5.127820969E-1,3.577489853E-1
2.232482450E-1,-1.828458309E-1,-4.589443207E-1,4.514966011E-1
2.285367350E-1,-1.749243438E-1,-3.564996719E-1,4.450054169E-1
2.335548600E-1,-1.047432423E-1,-1.670436859E-1,2.805192471E-1
2.385730370E-1,-1.836267114E-1,1.644897461E-2,3.412079811E-2
2.435912660E-1,-3.638636768E-1,6.148910522E-2,-3.023591042E-1
2.486094430E-1,-5.572251678E-1,2.556228638E-2,-6.857130527E-1
2.536276200E-1,-7.705698013E-1,-1.654720306E-2,-1.008673668E0
2.586457970E-1,-9.431120753E-1,-1.182346344E-1,-1.280765057E0
2.638496000E-1,-8.396009207E-1,-1.563100815E-1,-1.489874125E0
2.688677770E-1,-5.331757069E-1,-1.484451294E-1,-1.598321557E0
2.738859540E-1,-3.021627665E-1,-1.846494675E-1,-1.526436567E0
2.789041830E-1,-2.805288434E-1,-2.454004288E-1,-1.146349430E0
2.839223600E-1,-3.397018611E-1,-2.697858810E-1,-6.246044636E-1
2.889405370E-1,-5.209748149E-1,-2.308416367E-1,-3.496127129E-1
2.941132970E-1,-4.093362987E-1,-1.225376129E-1,-6.735329628E-1
2.991315270E-1,3.032609820E-2,8.475780487E-2,-1.233624697E0
3.041497040E-1,3.530195951E-1,2.037878036E-1,-1.532633066E0
3.091678810E-1,4.251801372E-1,3.468389511E-1,-1.383172393E0
3.141860580E-1,4.401651621E-1,5.254268646E-1,-1.169958591E0
3.192042350E-1,5.242031813E-1,5.487680435E-1,-1.005296707E0
3.242224640E-1,5.896376371E-1,5.890636444E-1,-6.248567104E-1
3.292406930E-1,7.622519732E-1,6.529722214E-1,-1.213965416E-1
3.342588180E-1,1.026940584E0,6.294584274E-1,3.313472271E-1
3.392769950E-1,1.191602468E0,5.716705322E-1,7.183372974E-1
3.442952250E-1,1.262603760E0,5.292167664E-1,1.374078989E0
3.493134020E-1,1.335607529E0,5.624713898E-1,2.053448915E0
3.543316310E-1,1.514356256E0,5.779314041E-1,2.434464931E0
3.593498080E-1,1.702551603E0,5.920629501E-1,2.591236591E0
3.647417350E-1,1.806463957E0,6.259794235E-1,2.614686489E0
3.697599640E-1,1.586581230E0,6.060743332E-1,2.554893494E0
3.747781410E-1,1.224786043E0,5.239305496E-1,2.325155735E0
3.797962660E-1,9.557694793E-1,4.751510620E-1,2.000382423E0
3.848144950E-1,7.374850512E-1,3.837862015E-1,1.727994442E0
3.898326720E-1,4.412512779E-1,2.624387741E-1,1.560917616E0
3.949872040E-1,2.121703029E-1,1.706256866E-1,1.343827248E0
4.000053810E-1,1.595449448E-1,3.517055511E-2,1.104606152E0
4.050235580E-1,2.391451001E-1,-3.002071381E-2,1.098532438E0
4.100417350E-1,4.143866897E-1,9.449958801E-3,1.249179363E0
4.150599120E-1,7.604730129E-1,3.398895264E-2,1.358286142E0
4.200781410E-1,1.214643240E0,2.712821960E-2,1.502239943E0
4.252766310E-1,1.661577940E0,1.400308609E-1,1.830540180E0
4.302948080E-1,2.032803297E0,3.973827362E-1,2.165475845E0
4.353130370E-1,2.276473999E0,6.147527695E-1,2.347375631E0
4.403312140E-1,2.494303703E0,7.265129089E-1,2.205420732E0
4.453493910E-1,2.698736668E0,7.057075500E-1,1.887730837E0
4.503676200E-1,2.745908260E0,7.126779556E-1,1.701150656E0
4.555338700E-1,2.501538277E0,6.425266266E-1,1.801209211E0
4.605520470E-1,2.100973606E0,4.495849609E-1,1.937186480E0
4.655702770E-1,1.698138714E0,2.013616562E-1,1.825132608E0
4.705884540E-1,1.194660544E0,4.307079315E-2,1.465421200E0
4.756066310E-1,3.572981060E-1,1.881027222E-2,9.484872818E-1
4.806248080E-1,-8.790726662E-1,-1.140766144E-1,2.210471630E-1
4.857882450E-1,-1.883577228E0,-2.309827805E-1,-9.920876026E-1
4.908064220E-1,-2.396163225E0,-3.042402267E-1,-2.296652317E0
4.958246520E-1,-2.651120186E0,-3.462705612E-1,-2.945941687E0
5.008428290E-1,-2.817070484E0,-2.461833954E-1,-3.032707930E0
5.058610060E-1,-3.039585114E0,-2.096529007E-1,-2.825506210E0
5.108791830E-1,-3.322970629E0,-2.315092087E-1,-2.635191441E0
5.160514750E-1,-3.476562023E0,-2.924089432E-1,-2.693505526E0
5.210696520E-1,-3.327223301E0,-3.181476593E-1,-2.871067762E0
5.260878810E-1,-2.974128485E0,-2.736625671E-1,-2.986432314E0
5.311060580E-1,-2.629570484E0,-2.807445526E-1,-2.843241215E0
5.361242350E-1,-2.309279442E0,-2.749557495E-1,-2.512681961E0
5.411424120E-1,-1.960277319E0,-3.490381241E-1,-2.159902573E0
5.463114220E-1,-1.698301196E0,-4.145803452E-1,-1.770498872E0
5.513296520E-1,-1.376533389E0,-4.265737534E-1,-1.200131178E0
5.563478290E-1,-8.308558464E-1,-3.762302399E-1,-5.542385578E-1
5.613660060E-1,-1.685262322E-1,-2.666740417E-1,-7.953143120E-2
5.663841830E-1,2.662197948E-1,-1.057262421E-1,2.215261459E-1
5.714024120E-1,5.379574895E-1,6.816387177E-2,4.504401684E-1
5.765460580E-1,7.625570893E-1,2.833967209E-1,6.126520634E-1
5.815642350E-1,9.596989155E-1,5.346946716E-1,5.479819775E-1
5.865824640E-1,9.299098253E-1,7.174005508E-1,2.464396954E-1
5.916006410E-1,6.579740047E-1,8.393812180E-1,-8.841323853E-2
5.966188180E-1,3.570419252E-1,8.989143372E-1,-4.992978573E-1
6.016369950E-1,1.310460120E-1,1.048880577E0,-1.110176325E0
6.067721000E-1,-1.135661602E-1,1.151379585E0,-1.678882718E0
6.117902770E-1,-4.699992239E-1,1.128660202E0,-2.004594326E0
6.168085060E-1,-8.661897182E-1,1.036699295E0,-2.011892796E0
6.218266830E-1,-1.119278669E0,9.095077515E-1,-1.827501059E0
6.268448600E-1,-1.221046686E0,7.853765488E-1,-1.614444852E0
6.318630370E-1,-1.224951744E0,6.498479843E-1,-1.291581631E0
6.370618390E-1,-1.233993292E0,5.056705475E-1,-8.675727844E-1
6.420800680E-1,-1.137051344E0,2.874183655E-1,-2.395770550E-1
6.470982450E-1,-1.031709433E0,1.477422714E-1,7.287039757E-1
6.521164750E-1,-8.010108471E-1,8.294868469E-2,1.566165447E0
6.571346000E-1,-3.218876123E-1,1.059989929E-1,2.225981951E0
6.621527770E-1,7.607546449E-2,1.942510605E-1,2.741944313E0
6.673421520E-1,2.988214493E-1,2.400903702E-1,3.139364958E0
6.723653290E-1,5.251696110E-1,3.255710602E-1,3.410722733E0
6.773885580E-1,7.315713167E-1,4.527654648E-1,3.464108467E0
6.824117870E-1,7.466573119E-1,5.760211945E-1,3.237226486E0
6.874349640E-1,5.354359746E-1,6.457014084E-1,2.752767324E0
6.924581930E-1,2.014386058E-1,5.818986893E-1,2.101666689E0
6.976019430E-1,-2.238690853E-1,5.193986893E-1,1.347660780E0
7.026251200E-1,-6.551323533E-1,4.802646637E-1,5.823998451E-1
7.076483500E-1,-9.137397408E-1,4.056510925E-1,-9.844088554E-2
7.126715790E-1,-1.212796211E0,3.297119141E-1,-6.994388103E-1
7.176947560E-1,-1.474063039E0,2.957630157E-1,-1.239231110E0
7.227179850E-1,-1.481171608E0,3.750934601E-1,-1.619103670E0
7.278622560E-1,-1.276424646E0,5.407609940E-1,-1.873682618E0
7.328854330E-1,-1.032277703E0,6.611537933E-1,-1.946320415E0
7.379086620E-1,-7.748238444E-1,8.007898331E-1,-1.833461881E0
7.429318910E-1,-5.583635569E-1,9.403352737E-1,-1.638170719E0
7.479550680E-1,-3.133071065E-1,9.868764877E-1,-1.434270859E0
7.529782970E-1,1.286178827E-2,1.002737999E0,-1.128522396E0
7.581205890E-1,2.322513759E-1,1.007257462E0,-7.383735180E-1
7.631437660E-1,3.677757978E-1,1.054668427E0,-3.318870068E-1
7.681669950E-1,5.178187490E-1,1.132677078E0,1.979374886E-2
7.731902250E-1,6.015800238E-1,1.117433548E0,4.814076424E-2
7.782134020E-1,6.908268929E-1,1.135761261E0,1.143703461E-1
7.832366310E-1,8.024259806E-1,1.125414848E0,2.519462109E-1
7.883788180E-1,9.510802031E-1,1.124687195E0,4.461205006E-1
7.934019950E-1,9.604048729E-1,1.140186310E0,5.786273479E-1
7.984252250E-1,9.168505073E-1,1.131609917E0,5.635919571E-1
8.034484540E-1,8.894549608E-1,1.094279289E0,4.901664257E-1
8.084716310E-1,7.829399109E-1,1.016602516E0,4.417347908E-1
8.134948600E-1,6.115598679E-1,9.677963257E-1,3.801026344E-1
8.186375160E-1,4.638022482E-1,1.002520561E0,3.003339767E-1
8.236606930E-1,3.006201088E-1,9.272832870E-1,2.813634872E-1
8.286839220E-1,2.244487405E-1,8.666782379E-1,3.058500290E-1
8.337071520E-1,1.010727882E-1,8.061723709E-1,2.881174088E-1
8.387303290E-1,-3.623932600E-2,7.504873276E-1,2.641625404E-1
8.437535580E-1,-9.236699343E-2,7.327165604E-1,2.082486153E-1
8.488746000E-1,-1.654736996E-1,6.717958450E-1,1.012554169E-1
8.538977770E-1,-3.250888586E-1,6.060333252E-1,-9.222078323E-2
8.589210060E-1,-4.516997337E-1,5.618667603E-1,-3.555171490E-1
8.639442350E-1,-4.670617580E-1,5.298261642E-1,-5.505950451E-1
8.689674120E-1,-4.336506128E-1,4.933385849E-1,-7.163531780E-1
8.739906410E-1,-4.396679401E-1,4.549770355E-1,-7.914295197E-1
8.791344950E-1,-4.348232746E-1,4.172964096E-1,-8.005554676E-1
8.841576720E-1,-3.450975418E-1,3.920879364E-1,-7.747919559E-1
8.891809020E-1,-2.706114650E-1,3.866338730E-1,-7.600054741E-1
8.942041310E-1,-1.921173334E-1,3.556051254E-1,-6.656923294E-1
8.992273080E-1,-8.322864771E-2,3.655414581E-1,-4.844803810E-1
9.042505370E-1,1.091575623E-2,3.876199722E-1,-2.906270027E-1
9.094177250E-1,9.764164686E-2,3.098840714E-1,-1.342802048E-1
9.144409020E-1,1.389124393E-1,2.611312866E-1,-6.675338745E-2
9.194641310E-1,1.802214086E-1,2.389802933E-1,1.688766479E-2
9.244873600E-1,2.220104635E-1,2.456979752E-1,1.093955040E-1
9.295105370E-1,2.119543254E-1,2.122163773E-1,1.817936897E-1
9.345337660E-1,1.262180209E-1,1.124553680E-1,2.605843544E-1
9.396673080E-1,-2.270579338E-2,6.476402283E-3,3.097243309E-1
9.446904850E-1,-1.544618607E-2,-3.539085388E-3,4.395537376E-1
9.497137140E-1,1.401284337E-1,7.467746735E-2,5.473403931E-1
9.547368910E-1,2.402852774E-1,1.212739944E-1,5.836601257E-1
9.597601200E-1,3.520615697E-1,1.290340424E-1,5.946955681E-1
9.647833500E-1,4.804275632E-1,1.862926483E-1,7.355313301E-1
9.699343390E-1,5.183746815E-1,1.927242279E-1,8.387231827E-1
9.749575160E-1,4.897834659E-1,1.508560181E-1,8.260512352E-1
9.799807450E-1,4.572211206E-1,1.277732849E-1,8.122949600E-1
9.850039750E-1,3.636493683E-1,3.755569458E-2,7.927947044E-1
9.900271520E-1,2.520808578E-1,-3.103160858E-2,7.074508667E-1
9.950503810E-1,1.724320650E-1,-2.091026306E-2,6.161189079E-1
1.000192568E0,1.034248471E-1,-6.829929352E-2,5.307564735E-1
1.005215745E0,-3.459721804E-2,-1.014842987E-1,4.251012802E-1
1.010238975E0,-1.008413434E-1,-7.756423950E-2,3.085799217E-1
1.015262204E0,-1.145504713E-1,-9.458160400E-2,2.123422623E-1
1.020285381E0,-1.620551944E-1,-1.095018387E-1,1.244606972E-1
1.025308610E0,-2.980272174E-1,-1.579837799E-1,4.228496552E-2
1.030446995E0,-3.765091896E-1,-1.610622406E-1,1.077842712E-2
1.035470172E0,-4.221174717E-1,-7.133197784E-2,2.011871338E-2
1.040493402E0,-4.038703442E-1,3.520965576E-3,-8.962631226E-2
1.045516631E0,-4.080467224E-1,5.165004730E-2,-1.677246094E-1
1.050539808E0,-3.940788507E-1,1.112508774E-1,-2.332568169E-1
1.055563037E0,-3.812146187E-1,1.751422882E-1,-3.507235050E-1
1.060712933E0,-3.788895607E-1,2.028532028E-1,-3.412272930E-1
1.065736110E0,-3.442099094E-1,2.255153656E-1,-3.626565933E-1
1.070759339E0,-3.633152843E-1,2.098560333E-1,-5.151658058E-1
1.075782568E0,-4.357608557E-1,1.038389206E-1,-5.887811184E-1
1.080805745E0,-5.445501804E-1,-1.101684570E-2,-5.648746490E-1
1.085828975E0,-6.201969385E-1,-7.739353180E-2,-5.346035957E-1
1.090948245E0,-5.221701264E-1,-6.219577789E-2,-4.383034706E-1
1.095971422E0,-4.038594961E-1,-5.414199829E-2,-3.523201942E-1
1.100994652E0,-2.937243581E-1,-6.999969482E-2,-2.977695465E-1
1.106017881E0,-1.964223385E-1,-1.382493973E-1,-1.815428734E-1
1.111041058E0,-1.880236864E-1,-1.515207291E-1,-3.931188583E-2
1.116064287E0,-1.343567967E-1,-1.457786560E-1,9.535074234E-2
1.121206266E0,-9.137034416E-3,-9.259319305E-2,1.464405060E-1
1.126229443E0,1.444901228E-1,-2.318286896E-2,1.286783218E-1
1.131252672E0,2.451205254E-1,-2.343177795E-2,1.843738556E-2
1.136275902E0,1.597725749E-1,-6.669712067E-2,3.299188614E-2
1.141299079E0,1.041494012E-1,-9.309005737E-2,8.342504501E-2
1.146322308E0,4.238873720E-2,-5.722904205E-2,-1.196956635E-2
1.151487829E0,-6.526172161E-3,7.292747498E-3,-1.263184547E-1
1.156511006E0,4.545539618E-2,2.594947815E-3,-1.952195168E-1
1.161534235E0,1.141629219E-1,2.179718018E-2,-2.065949440E-1
1.166557464E0,1.255508065E-1,-2.141952515E-3,-1.150650978E-1
1.171580641E0,7.960885763E-2,-1.428031921E-2,1.229572296E-2
1.176603870E0,7.677870989E-2,-1.239585876E-2,4.201841354E-2
1.181627100E0,3.583657742E-2,-1.077461243E-2,-6.379365921E-2
1.186780954E0,2.365779877E-2,-4.270935059E-2,-1.091918945E-1
1.191804131E0,6.395280361E-3,-4.595565796E-2,-1.185393333E-1
1.196827360E0,-3.954595327E-2,-3.509902954E-2,-9.640598297E-2
1.201850589E0,-3.769302368E-2,-5.442619324E-3,-8.105516434E-2
1.206873766E0,1.413309574E-2,1.678752899E-2,-8.695936203E-2
1.211896510E0,5.384445190E-2,4.373931885E-2,-1.525554657E-1
1.216919740E0,-4.963654280E-2,-1.286315918E-2,-1.583118439E-1
1.221942917E0,-1.070170403E-1,-5.952930450E-2,-8.797025681E-2
1.227087396E0,-1.471011043E-1,-8.666324615E-2,-7.325267792E-2
1.232110573E0,-1.605604887E-1,-1.206474304E-1,-5.896186829E-2
1.237133802E0,-1.524868608E-1,-1.210927963E-1,3.875732422E-2
1.242157031E0,-1.397502422E-1,-9.069061279E-2,9.584665298E-2
1.247180208E0,-1.316596866E-1,-6.992721558E-2,1.216540337E-1
1.252203437E0,-9.773063660E-2,-9.711360931E-2,1.097598076E-1
1.257226615E0,-1.046704650E-1,-1.124401093E-1,9.844303131E-2
1.262384427E0,-1.261072159E-1,-1.279563904E-1,7.595109940E-2
1.267407656E0,-1.189982295E-1,-1.529512405E-1,2.534580231E-2
1.272430833E0,-1.097896099E-1,-1.541147232E-1,-4.122209549E-2
1.277454062E0,-7.698339224E-2,-1.552648544E-1,-1.001248360E-1
1.282477292E0,-8.606433868E-3,-1.041049957E-1,-1.466937065E-1
1.287500469E0,2.127927542E-2,-9.362220764E-2,-2.430205345E-1
1.292707292E0,6.299620867E-2,-3.559398651E-2,-2.698640823E-1
1.297730521E0,1.188597083E-1,-6.398200989E-3,-2.753889561E-1
1.302753750E0,1.175030470E-1,2.280044556E-2,-3.027133942E-1
1.307776927E0,1.450536251E-1,6.838798523E-3,-2.636773586E-1
1.312800208E0,1.180974245E-1,-3.733444214E-2,-2.157390118E-1
1.317823385E0,8.692973852E-2,-5.717658997E-2,-2.612252235E-1
1.322846562E0,9.434801340E-2,-3.863716125E-2,-3.043448925E-1
1.327869792E0,8.744972944E-2,-4.862213135E-2,-3.996543884E-1
1.332893021E0,3.074991703E-2,-5.593776703E-2,-4.185969830E-1
1.337916198E0,-4.003185034E-2,-8.920192719E-2,-3.806862831E-1
1.343105729E0,-8.438241482E-2,-9.124946594E-2,-3.123915195E-1
1.348128906E0,-5.259436369E-2,-1.241607666E-1,-2.660944462E-1
1.353152083E0,1.419907808E-2,-1.141796112E-1,-2.365767956E-1
1.358175312E0,2.299767733E-2,-1.305932999E-1,-1.998691559E-1
1.363198490E0,-3.030353785E-2,-1.256637573E-1,-1.916515827E-1
1.368221771E0,-8.119821548E-2,-1.589775085E-1,-2.116689682E-1
1.373244948E0,-1.034164429E-1,-1.398735046E-1,-2.550566196E-1
1.378448021E0,-8.535987139E-2,-1.400108337E-1,-3.407258987E-1
1.383471250E0,-4.604446888E-2,-1.614055634E-1,-3.855526447E-1
1.388494427E0,-4.729396105E-2,-1.753053665E-1,-3.757529259E-1
1.393517656E0,-4.359948635E-2,-1.699018478E-1,-3.948996067E-1
1.398540885E0,-7.542723417E-2,-1.500396729E-1,-4.714183807E-1
1.403564115E0,-9.623229504E-3,-1.040010452E-1,-4.646222591E-1
1.408688385E0,2.720028162E-2,-7.014846802E-2,-4.556527138E-1
1.413711562E0,5.189365149E-2,-8.634185791E-2,-4.042580128E-1
1.418734792E0,8.125787973E-2,-5.729007721E-2,-3.247022629E-1
1.423758021E0,8.896183968E-2,-2.614116669E-2,-3.122544289E-1
1.428781198E0,7.983618975E-2,-2.138710022E-2,-3.640666008E-1
1.433804427E0,7.558053732E-2,-1.900386810E-2,-3.917777538E-1
1.438948750E0,1.676523685E-2,-5.222892761E-2,-3.528330326E-1
1.443971927E0,-2.731806040E-2,-8.978939056E-2,-3.525280952E-1
1.448995156E0,-4.488110542E-3,-4.368686676E-2,-3.502960205E-1
1.454018385E0,1.112514734E-2,-3.106117249E-2,-3.864347935E-1
1.459041562E0,9.761691093E-3,-1.838684082E-2,-3.822655678E-1
1.464064792E0,-2.032321692E-2,-3.180599213E-2,-3.143517971E-1
1.469207292E0,-9.307724237E-2,-8.298492432E-2,-2.639648914E-1
1.474230469E0,-1.153042316E-1,-1.051454544E-1,-1.904239655E-1
1.479253698E0,-3.769505024E-2,-8.903694153E-2,-1.366868019E-1
1.484276927E0,3.208446503E-2,-3.504562378E-2,-7.867527008E-2
1.489300104E0,4.903358221E-2,-4.811477661E-2,4.472732544E-4
1.494323333E0,9.443038702E-2,-4.218292236E-2,7.917737961E-2
1.499471927E0,1.561192870E-1,-2.691936493E-2,1.100115776E-1
1.504495104E0,1.557096839E-1,-6.889057159E-2,9.569692612E-2
1.509518333E0,1.152154207E-1,-8.918285370E-2,9.355211258E-2
1.514541562E0,1.204725504E-1,-5.223369598E-2,5.333805084E-2
1.519564740E0,1.282881498E-1,-1.784992218E-2,-1.051044464E-2
1.524587969E0,1.434658170E-1,-5.116462708E-3,2.834177017E-2
1.529725833E0,1.255540848E-1,1.702022552E-2,9.066724777E-2
1.534749010E0,1.174830794E-1,4.369735718E-2,3.853845596E-2
1.539772240E0,1.595746875E-1,7.958030701E-2,1.300811768E-3
1.544795469E0,2.040477395E-1,1.246309280E-1,-3.072738647E-2
1.549818646E0,1.033221483E-1,9.576416016E-2,-7.694911957E-2
1.554841875E0,2.043735981E-2,8.623123169E-2,-8.489894867E-2
1.559983437E0,9.797036648E-3,6.502151489E-2,-4.548406601E-2
1.565006667E0,-7.976889610E-3,4.399108887E-2,-2.542543411E-2
1.570029896E0,-2.350181341E-2,5.625057220E-2,2.085924149E-2
1.575053073E0,1.993131638E-2,6.815433502E-2,6.483078003E-2
1.580076250E0,8.618348837E-2,8.193492889E-2,8.544301987E-2
1.585099531E0,7.782244682E-2,7.386875153E-2,5.193614960E-2
1.590219167E0,7.122164965E-2,7.740402222E-2,-1.392602921E-2
1.595242344E0,5.452263355E-2,4.742813110E-2,-5.511474609E-2
1.600265573E0,-1.235532761E-2,1.988506317E-2,-1.003718376E-1
1.605288802E0,-6.465685368E-2,-9.797096252E-3,-1.643109322E-1
1.610311979E0,-8.828812838E-2,-3.196239471E-2,-2.423312664E-1
1.615335208E0,-9.988164902E-2,-1.814937592E-2,-2.891736031E-1
1.620477760E0,-2.597713470E-2,1.701831818E-2,-2.907059193E-1
1.625500937E0,6.179219484E-2,6.638526917E-2,-2.475700378E-1
1.630524167E0,9.938085079E-2,7.284450531E-2,-1.672792435E-1
1.635547396E0,1.347995996E-1,7.229232788E-2,-1.188147068E-1
1.640570573E0,1.988216639E-1,1.739139557E-1,-1.087346077E-1
1.645593802E0,2.176012397E-1,2.177076340E-1,-4.884481430E-2
1.650761927E0,1.889549494E-1,2.086944580E-1,-3.890419006E-2
1.655789167E0,8.452314138E-2,1.711616516E-1,-2.885246277E-2
1.660816354E0,-3.565406799E-2,1.432399750E-1,-8.931636810E-3
1.665843542E0,-1.360042095E-1,1.130638123E-1,-9.348821640E-2
1.670870781E0,-2.002950311E-1,8.545780182E-2,-1.464064121E-1
1.675897969E0,-2.431895733E-1,6.988143921E-2,-1.489171982E-1
1.681021094E0,-2.817391753E-1,4.944038391E-2,-1.367511749E-1
1.686048333E0,-3.016788363E-1,3.126239777E-2,-1.004376411E-1
1.691075521E0,-2.340682149E-1,5.093479156E-2,-9.471559525E-2
1.696102708E0,-1.295621395E-1,7.964324951E-2,-1.359748840E-1
1.701129948E0,-1.141015887E-1,9.582996368E-2,-1.166512966E-1
1.706157135E0,-1.086046100E-1,1.020574570E-1,-1.419582367E-1
1.711280677E0,-6.786900759E-2,1.031675339E-1,-2.044124603E-1
1.716307917E0,4.121363163E-2,1.326160431E-1,-3.539090157E-1
1.721335104E0,1.042233706E-1,1.807146072E-1,-4.068765640E-1
1.726362292E0,1.097483039E-1,1.998357773E-1,-4.592127800E-1
1.731389531E0,1.628069878E-1,2.021770477E-1,-5.158402920E-1
1.736416719E0,2.561670542E-1,2.212066650E-1,-5.625815392E-1
1.741537865E0,3.109366000E-1,2.354221344E-1,-7.159862518E-1
1.746565104E0,3.401729167E-1,2.119951248E-1,-7.739796638E-1
1.751592292E0,2.607385218E-1,6.784152985E-2,-5.562887192E-1
1.756619479E0,2.564212978E-1,4.398536682E-2,-6.878182888E-1
1.761646719E0,2.787803710E-1,6.538391113E-3,-8.809754848E-1
1.766673906E0,3.061217070E-1,1.970481873E-2,-8.690989017E-1
1.771797917E0,3.030129075E-1,-2.552986145E-3,-7.391598225E-1
1.776825156E0,2.552401125E-1,-5.528259277E-2,-6.297478676E-1
1.781852344E0,3.174071014E-1,-7.658481598E-2,-6.117153168E-1
1.786879531E0,3.935956061E-1,-9.288692474E-2,-6.010808945E-1
1.791906771E0,3.933962882E-1,-1.065711975E-1,-6.928801537E-1
1.796933958E0,3.911025226E-1,-1.412963867E-1,-7.843894958E-1
1.802054531E0,3.556785583E-1,-1.920280457E-1,-7.761166096E-1
1.807081771E0,3.422402143E-1,-2.468032837E-1,-7.020061016E-1
1.812108958E0,3.195697963E-1,-2.627124786E-1,-7.244403362E-1
1.817136146E0,2.591679692E-1,-3.565177917E-1,-7.380213737E-1
1.822163385E0,3.517782688E-1,-3.731412888E-1,-6.786582470E-1
1.827190573E0,3.651606441E-1,-4.083194733E-1,-5.943894386E-1
1.832321042E0,3.285151422E-1,-4.833707809E-1,-5.113332272E-1
1.837348281E0,3.231164813E-1,-5.623865128E-1,-4.649603367E-1
1.842375469E0,3.485326171E-1,-6.049880981E-1,-3.242466450E-1
1.847402656E0,3.715307117E-1,-6.923542023E-1,-1.300663948E-1
1.852429896E0,3.967708349E-1,-7.529125214E-1,-2.763891220E-2
1.857457083E0,4.265758395E-1,-8.414258957E-1,-1.304550171E-1
1.862549375E0,3.521837890E-1,-8.463163376E-1,2.861523628E-1
1.867576562E0,3.122577369E-1,-8.657369614E-1,4.625720978E-1
1.872603802E0,3.251495659E-1,-8.971881866E-1,3.508460522E-1
1.877630990E0,2.764112055E-1,-8.741283417E-1,2.956225872E-1
1.882658177E0,1.448940933E-1,-9.064235687E-1,3.988387585E-1
1.887685417E0,-4.521292448E-2,-9.221820831E-1,2.240345478E-1
1.892837083E0,-2.078928947E-1,-9.355831146E-1,-8.406639099E-3
1.897864323E0,-2.439061403E-1,-9.015579224E-1,-7.701873779E-2
1.902891510E0,-2.585577369E-1,-8.087921143E-1,1.012349129E-2
1.907918698E0,-1.951638460E-1,-7.503890991E-1,-1.237096786E-1
1.912945937E0,-8.280664682E-2,-6.618385315E-1,-3.248212337E-1
1.917973125E0,1.889747381E-2,-5.931091309E-1,-4.765999317E-1
1.923090417E0,-2.267521620E-2,-5.655813217E-1,-4.079875946E-1
1.928117656E0,-1.586384177E-1,-5.694246292E-1,-3.939447403E-1
1.933144844E0,-2.670527697E-1,-5.448331833E-1,-4.913768768E-1
1.938172031E0,-3.149068952E-1,-4.421348572E-1,-6.756570339E-1
1.943199271E0,-3.623179793E-1,-3.522043228E-1,-9.343233109E-1
1.948226458E0,-4.284603000E-1,-2.321510315E-1,-1.124299526E0
1.953351042E0,-5.465156436E-1,-7.977390289E-2,-1.391255379E0
1.958378281E0,-6.525002122E-1,1.215572357E-1,-1.789917946E0
1.963405469E0,-7.157746553E-1,2.409744263E-1,-2.158133268E0
1.968432656E0,-7.767257690E-1,3.150539398E-1,-2.456330776E0
1.973459896E0,-8.831058145E-1,3.823919296E-1,-2.652390003E0
1.978487083E0,-1.040604949E0,4.456434250E-1,-2.787065506E0
1.983609479E0,-1.131645679E0,4.599704742E-1,-2.891434193E0
1.988636719E0,-1.187220573E0,4.374237061E-1,-2.939185858E0
1.993663906E0,-1.199990273E0,4.594488144E-1,-2.911544800E0
1.998691094E0,-1.182066202E0,5.377130508E-1,-2.829792976E0
2.003718333E0,-1.138510227E0,5.906028748E-1,-2.746094227E0
2.008745521E0,-1.062009811E0,6.992368698E-1,-2.473575592E0
2.013867812E0,-1.024398804E0,7.822561264E-1,-2.330519199E0
2.018895052E0,-9.513746500E-1,8.344831467E-1,-2.305907249E0
2.023922240E0,-8.595692515E-1,8.992109299E-1,-2.199134350E0
2.028949427E0,-8.563267589E-1,9.357585907E-1,-1.976814866E0
2.033976667E0,-8.052587509E-1,9.776973724E-1,-1.894987345E0
2.039003854E0,-7.062596083E-1,1.037006378E0,-1.807565689E0
2.044130365E0,-6.715919971E-1,1.118472099E0,-1.499560118E0
2.049157604E0,-6.532144547E-1,1.135469437E0,-1.388423681E0
2.054184792E0,-5.867130160E-1,1.148168564E0,-1.266379833E0
2.059211979E0,-6.034390330E-1,1.228047371E0,-9.632740021E-1
2.064239219E0,-6.383619308E-1,1.276877403E0,-6.967482567E-1
2.069266406E0,-5.479158163E-1,1.289900780E0,-5.454149246E-1
2.074388177E0,-4.587144852E-1,1.338824272E0,-2.196521759E-1
2.079415417E0,-4.277961850E-1,1.358232498E0,6.197929382E-2
2.084442604E0,-4.455945492E-1,1.295852661E0,1.437458992E-1
2.089469792E0,-5.144757628E-1,1.280822754E0,1.624999046E-1
2.094497031E0,-6.657844186E-1,1.331814766E0,2.073760033E-1
2.099524219E0,-7.733349204E-1,1.360209465E0,5.361986160E-2
2.104627552E0,-8.636671901E-1,1.337652206E0,-1.602811813E-1
2.109654792E0,-9.830081463E-1,1.349972725E0,-3.906917572E-1
2.114681979E0,-1.179537654E0,1.349362373E0,-5.876376629E-1
2.119709167E0,-1.279168248E0,1.333522797E0,-8.159666061E-1
2.124736406E0,-1.322889209E0,1.355185509E0,-9.850785732E-1
2.129763594E0,-1.353811979E0,1.340292931E0,-1.143149137E0
2.134883854E0,-1.376500368E0,1.274848938E0,-1.238099575E0
2.139911094E0,-1.498429537E0,1.103817940E0,-1.274483681E0
2.144938281E0,-1.530369043E0,1.011701584E0,-1.252882242E0
2.149965469E0,-1.477295518E0,1.027025223E0,-1.285819054E0
2.154992708E0,-1.363321543E0,1.008436203E0,-1.320406437E0
2.160019896E0,-1.310481787E0,9.798831940E-1,-1.313571215E0
2.165160312E0,-1.294784784E0,9.439735413E-1,-1.308808804E0
2.170190677E0,-1.246117473E0,9.006042480E-1,-1.260358572E0
2.175221094E0,-1.178654909E0,8.690109253E-1,-1.189991951E0
2.180251458E0,-1.116001248E0,8.397560120E-1,-1.198365927E0
2.185281875E0,-1.076862335E0,8.297767639E-1,-1.135077715E0
2.190312240E0,-1.001120090E0,8.221778870E-1,-1.002415895E0
2.195428646E0,-9.435650110E-1,8.622980118E-1,-8.673002720E-1
2.200459010E0,-9.351882339E-1,9.163475037E-1,-8.081865311E-1
2.205489375E0,-9.618760943E-1,9.030084610E-1,-8.129496574E-1
2.210519792E0,-1.016947269E0,9.082307816E-1,-8.189322948E-1
2.215550156E0,-1.074130058E0,8.984470367E-1,-8.499252796E-1
2.220580573E0,-1.116749525E0,8.929195404E-1,-8.869638443E-1
2.225685937E0,-1.123654842E0,8.701934814E-1,-9.564998150E-1
2.230716302E0,-1.078091145E0,8.588485718E-1,-9.673590660E-1
2.235746667E0,-1.109107971E0,8.828945160E-1,-9.916105270E-1
2.240777083E0,-1.185754538E0,7.989177704E-1,-1.024617195E0
2.245807448E0,-1.286354184E0,7.028493881E-1,-1.037819862E0
2.250837865E0,-1.372840405E0,6.831254959E-1,-1.057547092E0
2.255941823E0,-1.457466483E0,6.081676483E-1,-1.043283224E0
2.260972187E0,-1.477865815E0,5.714693069E-1,-9.738519192E-1
2.266002552E0,-1.381368637E0,5.680341721E-1,-8.514900208E-1
2.271032969E0,-1.285119891E0,6.479206085E-1,-7.096302509E-1
2.276063333E0,-1.124398828E0,6.555490494E-1,-6.294798851E-1
2.281093750E0,-9.467514753E-1,6.579513550E-1,-5.199122429E-1
2.286202083E0,-9.360784292E-1,6.313304901E-1,-4.074354172E-1
2.291232448E0,-9.723612666E-1,5.926256180E-1,-2.875280380E-1
2.296262812E0,-9.050559402E-1,5.894680023E-1,-1.239891052E-1
2.301293229E0,-8.227887154E-1,6.048879623E-1,-2.565383911E-4
2.306323594E0,-7.089218497E-1,6.649923325E-1,9.838056564E-2
2.311354010E0,-5.924299955E-1,7.408733368E-1,3.357505798E-2
2.316462083E0,-5.689311028E-1,7.465257645E-1,-6.537294388E-2
2.321492448E0,-5.857683420E-1,7.996311188E-1,-1.896195412E-1
2.326522812E0,-5.949949026E-1,7.399139404E-1,-2.888445854E-1
2.331553229E0,-6.658673882E-1,6.252508163E-1,-3.755555153E-1
2.336583594E0,-7.742074728E-1,5.324687958E-1,-4.788777828E-1
2.341614010E0,-8.602758646E-1,4.952526093E-1,-5.945417881E-1
2.346696719E0,-9.912554622E-1,5.278110504E-1,-6.962478161E-1
2.351727083E0,-1.079263926E0,5.559062958E-1,-7.435197830E-1
2.356757448E0,-1.110511065E0,5.889091492E-1,-7.672209740E-1
2.361787865E0,-1.118697882E0,6.600551605E-1,-7.526364326E-1
2.366818229E0,-1.094468117E0,7.262516022E-1,-7.620558739E-1
2.371848646E0,-9.877571464E-1,7.731981277E-1,-7.883274555E-1
2.376958906E0,-9.061769843E-1,8.342971802E-1,-8.168323040E-1
2.381989271E0,-8.471902013E-1,9.121313095E-1,-8.527936935E-1
2.387019635E0,-8.273732662E-1,9.971742630E-1,-9.393532276E-1
2.392050052E0,-8.608249426E-1,9.797363281E-1,-1.038718462E0
2.397080417E0,-9.614843726E-1,9.344558716E-1,-1.053492308E0
2.402110833E0,-1.071607471E0,8.831224442E-1,-8.838934898E-1
2.407244115E0,-1.136148214E0,8.449039459E-1,-7.168436050E-1
2.412274479E0,-1.095386147E0,8.770961761E-1,-5.092222691E-1
2.417304844E0,-9.737372398E-1,9.552707672E-1,-2.507994175E-1
2.422335260E0,-7.784593105E-1,1.016814232E0,8.777284622E-2
2.427365625E0,-5.766018033E-1,1.097324371E0,3.946051598E-1
2.432396042E0,-4.111185074E-1,1.151011467E0,5.939917564E-1
2.437497865E0,-3.009724617E-1,1.182611465E0,7.389750481E-1
2.442528229E0,-2.287334204E-1,1.125400543E0,8.294072151E-1
2.447558594E0,-3.522965908E-1,1.075325966E0,8.029222488E-1
2.452589010E0,-5.470883250E-1,1.020679474E0,6.663670540E-1
2.457619375E0,-6.598830223E-1,1.026324272E0,4.241037369E-1
2.462649792E0,-7.129160166E-1,1.092301369E0,1.261229515E-1
2.467758281E0,-7.067741156E-1,1.187521935E0,-2.134180069E-1
2.472788646E0,-6.609515548E-1,1.281001091E0,-5.326318741E-1
2.477819062E0,-6.043375134E-1,1.370517731E0,-7.410814762E-1
2.482849427E0,-5.464670062E-1,1.413240433E0,-9.015336037E-1
2.487879844E0,-4.585737288E-1,1.419075012E0,-1.071957350E0
2.492910208E0,-3.860035539E-1,1.450581551E0,-1.186049700E0
2.498008854E0,-2.209579051E-1,1.417059898E0,-1.141471148E0
2.503039219E0,-1.765927672E-2,1.337607384E0,-8.974134922E-1
2.508069583E0,1.741302609E-1,1.202891350E0,-5.189967155E-1
2.513100000E0,3.235630095E-1,1.065505028E0,-3.245925903E-2
2.518130365E0,4.261844158E-1,8.844490051E-1,4.719862938E-1
2.523160781E0,6.044797897E-1,8.076658249E-1,9.569072723E-1
2.528275000E0,7.309223413E-1,7.008686066E-1,1.420339584E0
2.533305365E0,8.435145020E-1,5.773286819E-1,1.800042629E0
2.538335729E0,9.756257534E-1,4.943351746E-1,2.189626217E0
2.543366146E0,9.570193291E-1,3.580713272E-1,2.458485603E0
2.548396510E0,8.305050135E-1,2.160749435E-1,2.841799259E0
2.553426927E0,7.588364482E-1,7.522964478E-2,3.088829517E0
2.558534740E0,6.669514179E-1,-7.640647888E-2,3.185341358E0
2.563565104E0,5.428533554E-1,-2.247438431E-1,3.179910660E0
2.568595469E0,4.605687261E-1,-3.482313156E-1,3.201696873E0
2.573625885E0,3.839638829E-1,-4.159412384E-1,3.222090244E0
2.578656250E0,3.986165524E-1,-4.351835251E-1,3.176532269E0
2.583686667E0,5.501118302E-1,-4.777193069E-1,3.072227478E0
2.588769844E0,7.760916948E-1,-4.908714294E-1,2.964215279E0
2.593800208E0,9.478441477E-1,-5.032873154E-1,2.883436203E0
2.598830573E0,1.161517143E0,-5.818977356E-1,2.793986320E0
2.603860990E0,1.331212997E0,-6.045398712E-1,2.700498104E0
2.608891354E0,1.517141461E0,-6.238050461E-1,2.476088047E0
2.613921771E0,1.681329489E0,-6.059160233E-1,2.130027771E0
2.619029479E0,1.785440922E0,-5.913763046E-1,1.788885593E0
2.624059844E0,1.782619834E0,-6.609659195E-1,1.427853107E0
2.629090208E0,1.730094314E0,-7.234516144E-1,1.087186813E0
2.634120625E0,1.664167762E0,-7.545652390E-1,8.067932129E-1
2.639150990E0,1.694908738E0,-7.732257843E-1,6.003837585E-1
2.644181354E0,1.717267156E0,-7.961001396E-1,4.389305115E-1
2.649314219E0,1.798034310E0,-7.849245071E-1,2.816743851E-1
2.654344583E0,1.899431825E0,-7.251443863E-1,9.219837189E-2
2.659374948E0,1.983042240E0,-6.504497528E-1,-2.163410187E-2
2.664405365E0,2.037060499E0,-6.087703705E-1,-1.243906021E-1
2.669435729E0,2.039928913E0,-5.951938629E-1,-2.305831909E-1
2.674466146E0,2.003863335E0,-5.641012192E-1,-3.261485100E-1
2.679571198E0,1.926802874E0,-5.513858795E-1,-4.493856430E-1
2.684604167E0,1.820631742E0,-5.352506638E-1,-5.529108047E-1
2.689637135E0,1.639709353E0,-5.849561691E-1,-6.441006660E-1
2.694670052E0,1.518021584E0,-6.429738998E-1,-6.536931992E-1
2.699703021E0,1.443448067E0,-6.114273071E-1,-6.149890423E-1
2.704735990E0,1.360734224E0,-6.148862839E-1,-5.518467426E-1
2.709827604E0,1.221819997E0,-6.844682693E-1,-4.856228828E-1
2.714860573E0,1.095779300E0,-7.581768036E-1,-3.320636749E-1
2.719893542E0,9.799644351E-1,-8.265910149E-1,-1.029853821E-1
2.724926458E0,8.907623291E-1,-9.426875114E-1,8.979797363E-2
2.729959427E0,8.712570071E-1,-1.020523071E0,2.993803024E-1
2.734992396E0,8.706927299E-1,-1.084446907E0,5.168685913E-1
2.740087604E0,8.818470240E-1,-1.072660923E0,6.352949142E-1
2.745120573E0,8.611595631E-1,-1.081210613E0,6.672921181E-1
2.750153542E0,7.800676227E-1,-1.114812374E0,6.559967995E-1
2.755186458E0,6.791957021E-1,-1.171004772E0,5.440568924E-1
2.760219427E0,5.897687674E-1,-1.180480003E0,3.820090294E-1
2.765252396E0,4.971675873E-1,-1.200512886E0,1.791372299E-1
2.770341875E0,4.230573773E-1,-1.187908649E0,-2.168703079E-2
2.775374844E0,3.459111452E-1,-1.164062500E0,-2.375583649E-1
2.780407812E0,3.041658998E-1,-1.057129383E0,-5.069479942E-1
2.785440781E0,2.446096689E-1,-9.699521065E-1,-8.012976646E-1
2.790473698E0,1.458069086E-1,-9.215950966E-1,-9.914867878E-1
2.795506667E0,5.094130337E-2,-8.471555710E-1,-1.243204355E0
2.800605000E0,-3.775364906E-2,-8.207397461E-1,-1.494293690E0
2.805637969E0,-7.917437702E-2,-8.204336166E-1,-1.613834381E0
2.810670937E0,-9.233510494E-2,-8.031115532E-1,-1.752787828E0
2.815703854E0,-1.418467313E-1,-8.331737518E-1,-1.901931286E0
2.820736823E0,-1.196414232E-1,-7.956438065E-1,-1.949099541E0
2.825769792E0,-3.750174865E-2,-7.240772247E-1,-1.985439062E0
2.830863802E0,6.650587916E-2,-6.737003326E-1,-2.003481150E0
2.835896771E0,1.450842321E-1,-6.037187576E-1,-1.989132881E0
2.840929740E0,2.175208926E-1,-5.906143188E-1,-1.983258009E0
2.845962656E0,1.955374777E-1,-5.791721344E-1,-1.993258476E0
2.850995625E0,1.393832564E-1,-5.023202896E-1,-1.969130039E0
2.856028594E0,1.304388642E-1,-4.152698517E-1,-1.929878712E0
2.861097812E0,6.541008502E-2,-3.994979858E-1,-1.846517801E0
2.866130781E0,3.283817321E-2,-3.737258911E-1,-1.766645670E0
2.871163750E0,-2.499271184E-2,-3.069515228E-1,-1.747511625E0
2.876196667E0,-8.670630306E-2,-2.638311386E-1,-1.748304129E0
2.881229635E0,-1.191711724E-1,-2.372407913E-1,-1.766407251E0
2.886262604E0,-2.039308250E-1,-1.841297150E-1,-1.859130621E0
2.891348854E0,-2.763128877E-1,-1.546602249E-1,-1.916542053E0
2.896381823E0,-3.029913008E-1,-1.392621994E-1,-1.888416052E0
2.901414792E0,-4.539719820E-1,-1.687707901E-1,-1.847076178E0
2.906447708E0,-6.500285864E-1,-2.166614532E-1,-1.768912554E0
2.911480677E0,-8.290930986E-1,-2.829713821E-1,-1.680150032E0
2.916513646E0,-9.437430501E-1,-3.056802750E-1,-1.472819567E0
2.921640573E0,-9.893732667E-1,-3.256731033E-1,-1.240078449E0
2.926673542E0,-9.233742356E-1,-3.506717682E-1,-9.928548336E-1
2.931706510E0,-8.343480229E-1,-3.449840546E-1,-7.116916180E-1
2.936739427E0,-7.175780535E-1,-3.137817383E-1,-4.223003387E-1
2.941772396E0,-6.041070819E-1,-2.933187485E-1,-1.336112022E-1
2.946805365E0,-5.079658628E-1,-2.622270584E-1,7.818174362E-2
2.951897917E0,-4.022298157E-1,-1.918468475E-1,1.510705948E-1
2.956930885E0,-2.747026384E-1,-9.868907928E-2,5.601978302E-2
2.961963854E0,-1.894649565E-1,5.808639526E-2,-1.090626717E-1
2.966996771E0,-1.961448044E-1,2.453460693E-1,-3.592858315E-1
2.972029740E0,-2.035019696E-1,4.299697876E-1,-7.024655342E-1
2.977062708E0,-2.859973609E-1,6.363077164E-1,-1.110582113E0
2.982161667E0,-4.267370403E-1,7.450847626E-1,-1.447860479E0
2.987194635E0,-6.502478123E-1,8.164939880E-1,-1.683807611E0
2.992227604E0,-8.779358864E-1,9.728660583E-1,-1.733106613E0
2.997260521E0,-1.041172028E0,1.039291382E0,-1.693755150E0
3.002293490E0,-1.207705617E0,9.917898178E-1,-1.512879610E0
3.007326458E0,-1.349487662E0,9.211854935E-1,-1.161561251E0
3.012415885E0,-1.397819519E0,8.580636978E-1,-7.179682255E-1
3.017448854E0,-1.437178016E0,7.563915253E-1,-2.528982162E-1
3.022481823E0,-1.496725678E0,6.518249512E-1,2.460956573E-1
3.027514740E0,-1.389925122E0,5.870265961E-1,6.983847618E-1
3.032547708E0,-1.239243865E0,5.185470581E-1,1.126214504E0
3.037580677E0,-1.082693934E0,4.388647079E-1,1.532721996E0
3.042677917E0,-9.656474590E-1,3.525238037E-1,1.937592506E0
3.047710885E0,-7.344583273E-1,3.502340317E-1,2.226433277E0
3.052743854E0,-3.887082934E-1,4.269285202E-1,2.399775982E0
3.057776771E0,-1.766443998E-1,4.652509689E-1,2.565595150E0
3.062809740E0,-4.026868939E-2,5.060968399E-1,2.594504356E0
3.067842708E0,1.142104939E-1,6.046209335E-1,2.457821846E0
3.072908854E0,2.222516090E-1,7.321138382E-1,2.155759811E0
3.077941823E0,2.844806910E-1,8.723049164E-1,1.823979378E0
3.082974792E0,2.102809846E-1,9.058904648E-1,1.493122101E0
3.088007760E0,2.394024581E-1,9.888286591E-1,1.078879833E0
3.093040677E0,4.218499362E-1,1.200374603E0,5.136375427E-1
3.098073646E0,5.978463888E-1,1.375604630E0,9.881973267E-3
3.103170885E0,7.533251047E-1,1.438217163E0,-3.084843159E-1
3.108203854E0,8.442023993E-1,1.503923416E0,-5.318849087E-1
3.113236823E0,8.612455726E-1,1.515233994E0,-7.656106949E-1
3.118269740E0,8.907045126E-1,1.544220924E0,-1.136993647E0
3.123302708E0,9.232351780E-1,1.593384743E0,-1.462063551E0
3.128335677E0,9.784189463E-1,1.614896774E0,-1.690878153E0
3.133431562E0,9.365568757E-1,1.635089874E0,-1.928872347E0
3.138464531E0,7.475484014E-1,1.651885033E0,-2.155290127E0
3.143497500E0,5.474857092E-1,1.732170105E0,-2.499156952E0
3.148530417E0,2.637506127E-1,1.830633163E0,-2.972778320E0
3.153563385E0,-5.440707505E-2,2.014426231E0,-3.516642570E0
3.158596354E0,-4.317751527E-1,2.204760551E0,-4.018869877E0
3.163674271E0,-8.309087753E-1,2.370944977E0,-4.475703239E0
3.168707240E0,-1.302776814E0,2.432217598E0,-4.842987537E0
3.173740208E0,-1.649331689E0,2.437047005E0,-5.090861320E0
3.178773125E0,-1.921297908E0,2.316733360E0,-5.029465675E0
3.183806094E0,-2.041853189E0,2.088251114E0,-4.439255238E0
3.188839062E0,-1.989395857E0,1.858993530E0,-3.449118614E0
3.193979896E0,-1.821491361E0,1.545118332E0,-2.264821053E0
3.199014896E0,-1.506482363E0,1.245623589E0,-9.570007324E-1
3.204049896E0,-1.063389182E0,8.834171295E-1,4.061422348E-1
3.209084948E0,-6.210007668E-1,5.127000809E-1,1.795510292E0
3.214119948E0,-1.763928235E-1,2.376956940E-1,2.943020821E0
3.219154948E0,2.449476719E-1,4.048156738E-2,4.307940006E0
3.224231719E0,5.171028376E-1,-5.863857269E-2,5.545234680E0
3.229266719E0,6.860178113E-1,-1.520404816E-1,6.363469601E0
3.234301719E0,8.568539619E-1,-2.497625351E-1,6.826214314E0
3.239336771E0,9.336137772E-1,-3.211679459E-1,6.920446873E0
3.244371771E0,9.373509884E-1,-3.162736893E-1,6.673374176E0
3.249406771E0,9.182751775E-1,-2.946014404E-1,6.185152054E0
3.254488646E0,8.070961237E-1,-3.130025864E-1,5.306726933E0
3.259523646E0,5.604199171E-1,-3.318958282E-1,4.354378700E0
3.264558646E0,2.001992166E-1,-3.720045090E-1,3.596928120E0
3.269593698E0,-1.034612805E-1,-3.822793961E-1,2.884235382E0
3.274628698E0,-2.573982477E-1,-3.836154938E-1,2.083346844E0
3.279663698E0,-3.287183940E-1,-3.874034882E-1,1.367808819E0
3.284748802E0,-3.555874228E-1,-3.671283722E-1,8.064231873E-1
3.289783802E0,-3.501627147E-1,-3.222017288E-1,3.139061928E-1
3.294818854E0,-3.722680211E-1,-2.909040451E-1,-2.223463058E-1
3.299853854E0,-3.765221834E-1,-2.705726624E-1,-6.521508694E-1
3.304888854E0,-3.917562366E-1,-2.515792847E-1,-9.853789806E-1
3.309923854E0,-4.060639143E-1,-2.600955963E-1,-1.356454134E0
3.315010625E0,-4.673675299E-1,-2.529096603E-1,-1.748886585E0
3.320045625E0,-5.905727148E-1,-3.229026794E-1,-2.008159399E0
3.325080677E0,-7.467044592E-1,-4.458179474E-1,-2.185272217E0
3.330115677E0,-9.647667408E-1,-5.616035461E-1,-2.209046364E0
3.335150677E0,-1.168221354E0,-6.319313049E-1,-2.079920292E0
3.340185677E0,-1.199300885E0,-7.217559814E-1,-1.708950043E0
3.345244844E0,-1.151400328E0,-7.835903168E-1,-1.179359198E0
3.350279844E0,-1.113340855E0,-8.084125519E-1,-7.222352028E-1
3.355314844E0,-9.920620322E-1,-8.756437302E-1,-2.599253654E-1
3.360349896E0,-9.002464414E-1,-9.640741348E-1,1.510264874E-1
3.365384896E0,-9.382966161E-1,-1.054917812E0,5.498342514E-1
3.370419896E0,-1.027603030E0,-1.181834221E0,8.603570461E-1
3.375528125E0,-1.103262186E0,-1.313853264E0,1.185977459E0
3.380563125E0,-1.156364322E0,-1.429714680E0,1.433977127E0
3.385598125E0,-1.175001621E0,-1.515232563E0,1.501920700E0
3.390633125E0,-1.166728139E0,-1.611165524E0,1.483448505E0
3.395668177E0,-1.153024316E0,-1.640897751E0,1.464645863E0
3.400703177E0,-1.071353436E0,-1.676242828E0,1.483687401E0
3.405786615E0,-9.838100672E-1,-1.695667267E0,1.444852352E0
3.410821615E0,-8.686603308E-1,-1.739608288E0,1.359629154E0
3.415856615E0,-7.642167211E-1,-1.745903969E0,1.211498737E0
3.420891667E0,-7.085910439E-1,-1.736093521E0,1.069822073E0
3.425926667E0,-6.249710321E-1,-1.748247147E0,8.790900707E-1
3.430961667E0,-5.538374186E-1,-1.777437687E0,6.630566120E-1
3.436045000E0,-5.166704655E-1,-1.816369534E0,4.526450634E-1
3.441080000E0,-4.221315384E-1,-1.860068798E0,2.857322693E-1
3.446115000E0,-1.599484533E-1,-1.788494587E0,-5.879735947E-2
3.451150052E0,-5.737246573E-2,-1.725964546E0,-2.176294327E-1
3.456185052E0,-3.987450898E-2,-1.730008125E0,-1.189725399E-1
3.461220052E0,-1.716107130E-3,-1.797969341E0,-7.692766190E-2
3.466302552E0,8.579809964E-2,-1.800514221E0,-2.064030170E-1
3.471337552E0,9.114244580E-2,-1.819118500E0,-1.362698078E-1
3.476372604E0,2.605548501E-2,-1.719961643E0,-6.500363350E-2
3.481407604E0,-4.974587262E-2,-1.694824219E0,1.299653053E-1
3.486442604E0,-9.813235700E-2,-1.712687492E0,1.594564915E-1
3.491477604E0,-1.149885654E-1,-1.720950603E0,3.824067116E-2
3.496526146E0,-1.793752015E-1,-1.753093243E0,1.047134399E-2
3.501561146E0,-3.443675339E-1,-1.763802528E0,2.375435829E-2
3.506596146E0,-4.256379604E-1,-1.846423149E0,3.264021873E-2
3.511631198E0,-5.361061096E-1,-1.905114651E0,-2.999305725E-2
3.516666198E0,-7.072542906E-1,-1.920789242E0,-1.042478085E-1
3.521701198E0,-8.651041985E-1,-1.895888329E0,-8.730483055E-2
3.526827396E0,-9.763014317E-1,-1.840247154E0,-2.904844284E-2
3.531862396E0,-1.055762172E0,-1.782571316E0,2.964425087E-2
3.536897396E0,-1.065383911E0,-1.694212437E0,-1.157832146E-2
3.541932448E0,-1.050728798E0,-1.553826809E0,1.443696022E-1
3.546967448E0,-9.756218195E-1,-1.414288998E0,3.804385662E-1
3.552002448E0,-8.734131455E-1,-1.237477303E0,5.151100159E-1
3.557083333E0,-7.490088940E-1,-9.969816208E-1,4.572877884E-1
3.562118333E0,-5.543511510E-1,-6.879577637E-1,3.384890556E-1
3.567153333E0,-3.823402524E-1,-3.987922668E-1,1.846413612E-1
3.572188385E0,-3.069522381E-1,-1.555423737E-1,-3.582143784E-2
3.577223385E0,-2.608432174E-1,1.137714386E-1,-1.915795803E-1
3.582258385E0,-1.216866672E-1,3.233022690E-1,-3.217206001E-1
3.587319792E0,3.571808338E-4,6.024551392E-1,-4.984154701E-1
3.592354792E0,6.269679964E-2,8.581562042E-1,-6.529805660E-1
3.597389792E0,1.133931130E-1,1.018877983E0,-7.811777592E-1
3.602424844E0,7.353062928E-2,1.147133827E0,-7.519466877E-1
3.607459792E0,3.034606576E-3,1.302876472E0,-6.064543724E-1
3.612494844E0,-9.501919150E-3,1.361709595E0,-3.305964470E-1
3.617574948E0,-2.566531301E-3,1.395456314E0,4.692769051E-2
3.622609948E0,-4.104351997E-2,1.480264664E0,5.366175175E-1
3.627644948E0,-1.203351021E-1,1.611064911E0,1.028802633E0
3.632680000E0,-1.716099381E-1,1.715749741E0,1.490658998E0
3.637715000E0,-8.728212118E-2,1.777218819E0,2.016496420E0
3.642750000E0,2.728253603E-2,1.843035698E0,2.666861296E0
3.647858281E0,1.842781454E-1,1.936621666E0,3.399733782E0
3.652893281E0,3.432587981E-1,2.031020164E0,3.917444468E0
3.657928281E0,5.015366077E-1,2.099470139E0,4.312245846E0
3.662963333E0,5.249357224E-1,2.072283745E0,4.680830002E0
3.667998333E0,4.686279893E-1,1.877652168E0,4.803606510E0
3.673033333E0,4.951116741E-1,1.728681564E0,4.774326324E0
3.678117656E0,6.550086737E-1,1.680367470E0,4.538197517E0
3.683152656E0,8.291026354E-1,1.737947464E0,3.907591105E0
3.688187656E0,9.694069624E-1,1.810969353E0,2.941491604E0
3.693222656E0,1.031055093E0,1.940918922E0,1.817782879E0
3.698257656E0,9.354487658E-1,2.176390648E0,7.140436172E-1
3.703292708E0,8.024776578E-1,2.419960976E0,-3.861765862E-1
3.708377292E0,7.422311902E-1,2.638845444E0,-1.451325893E0
3.713413906E0,6.691091657E-1,2.905941963E0,-2.434189320E0
3.718450573E0,5.712788105E-1,3.018404961E0,-3.204922676E0
3.723487187E0,4.439543486E-1,2.988866806E0,-3.614412069E0
3.728523802E0,4.047276974E-1,2.877568245E0,-3.726001263E0
3.733560469E0,3.601222634E-1,2.670303345E0,-3.566405535E0
3.738637604E0,3.963175714E-1,2.407560349E0,-2.881390572E0
3.743674219E0,5.036574006E-1,2.176824570E0,-1.740326405E0
3.748710885E0,6.723765135E-1,1.891242981E0,-6.011228561E-1
3.753747500E0,8.901875019E-1,1.597821236E0,3.688609600E-1
3.758784115E0,1.058432698E0,1.422423363E0,1.344515324E0
3.763820781E0,1.258293509E0,1.234716415E0,2.273209572E0
3.768894062E0,1.322278738E0,1.105721474E0,3.156729937E0
3.773930677E0,1.364989400E0,9.673585892E-1,3.939948082E0
3.778967292E0,1.396017194E0,8.240613937E-1,4.252826691E0
3.784003958E0,1.398690701E0,6.972284317E-1,4.342520237E0
3.789040573E0,1.308296919E0,6.011285782E-1,4.331315517E0
3.794077240E0,1.160591245E0,5.024967194E-1,4.072677135E0
3.799156250E0,9.626532197E-1,3.730316162E-1,3.676000595E0
3.804192865E0,7.595043182E-1,2.823619843E-1,3.207922459E0
3.809229531E0,5.653148293E-1,1.949281693E-1,2.696368694E0
3.814266146E0,3.893718719E-1,1.326866150E-1,2.152382851E0
3.819302760E0,3.034898639E-1,8.396720886E-2,1.647049904E0
3.824339427E0,2.740343213E-1,-3.948402405E-2,1.272992611E0
3.829375312E0,2.340782583E-1,-1.679067612E-1,9.480676651E-1
3.834411979E0,2.314165831E-1,-2.796792984E-1,6.720156670E-1
3.839448594E0,2.828524113E-1,-3.413476944E-1,4.400310516E-1
3.844485260E0,4.050789177E-1,-4.461870193E-1,2.016122341E-1
3.849521875E0,5.120557547E-1,-5.103378296E-1,-2.424860001E-2
3.854558490E0,5.726542473E-1,-6.032476425E-1,-2.734084129E-1
3.859646927E0,5.557445288E-1,-7.462301254E-1,-5.295085907E-1
3.864683542E0,4.687305689E-1,-9.055185318E-1,-7.547380924E-1
3.869720208E0,3.353698254E-1,-1.095229149E0,-9.400801659E-1
3.874756823E0,2.561135292E-1,-1.286371708E0,-1.090951204E0
3.879793437E0,2.190607637E-1,-1.433511734E0,-1.221700907E0
3.884830104E0,2.287865281E-1,-1.543910027E0,-1.294031858E0
3.889900937E0,2.925286293E-1,-1.691849232E0,-1.245653152E0
3.894937552E0,3.625782728E-1,-1.796082973E0,-1.081164122E0
3.899974219E0,4.675840139E-1,-1.888052940E0,-8.574726582E-1
3.905010833E0,5.406682491E-1,-2.030244827E0,-6.362209320E-1
3.910047448E0,5.891827941E-1,-2.160556316E0,-4.481115341E-1
3.915084115E0,6.252267957E-1,-2.298245907E0,-2.713224888E-1
3.920188021E0,5.769355297E-1,-2.450654030E0,-1.126027107E-1
3.925224635E0,5.571324825E-1,-2.572388649E0,5.698490143E-2
3.930261302E0,5.443477631E-1,-2.666095257E0,1.876962185E-1
3.935297917E0,5.934475064E-1,-2.755790234E0,2.151341438E-1
3.940334531E0,6.782274842E-1,-2.784152985E0,1.444644928E-1
3.945371198E0,6.817386746E-1,-2.794259548E0,5.462121964E-2
3.950446562E0,6.782683730E-1,-2.826848984E0,-1.738500595E-1
3.955483177E0,6.991587281E-1,-2.778690338E0,-3.860232830E-1
3.960519844E0,6.991717815E-1,-2.680936813E0,-6.083419323E-1
3.965556458E0,7.435026169E-1,-2.612296104E0,-8.917672634E-1
3.970593073E0,6.933113337E-1,-2.608312130E0,-1.203466654E0
3.975629740E0,5.944118500E-1,-2.582558155E0,-1.512850761E0
3.980710573E0,5.018484592E-1,-2.582870007E0,-1.762623549E0
3.985747240E0,3.677878678E-1,-2.532241821E0,-1.877362967E0
3.990783854E0,3.474898338E-1,-2.471414089E0,-2.192199945E0
3.995820521E0,4.095677137E-1,-2.378705978E0,-2.544628143E0
4.000857135E0,4.130538106E-1,-2.258844376E0,-2.583209991E0
4.005893750E0,3.749479651E-1,-2.200412750E0,-2.561906338E0
4.010963437E0,3.527372479E-1,-2.165026188E0,-2.583769560E0
4.016000052E0,3.342772424E-1,-2.109400272E0,-2.615754128E0
4.021036719E0,3.243606091E-1,-2.045572281E0,-2.585967064E0
4.026073333E0,3.469468057E-1,-1.976118088E0,-2.429446459E0
4.031109948E0,3.540911674E-1,-1.944241047E0,-2.179503918E0
4.036146615E0,3.792304397E-1,-1.926136017E0,-1.933901429E0
4.041225417E0,4.152098894E-1,-1.852557182E0,-1.716152072E0
4.046262031E0,4.260637462E-1,-1.769325733E0,-1.511092424E0
4.051298646E0,4.116736650E-1,-1.698022366E0,-1.349698067E0
4.056335312E0,4.078309834E-1,-1.638741016E0,-1.200515985E0
4.061371927E0,3.211278319E-1,-1.555689812E0,-9.962449074E-1
4.066408594E0,1.971022189E-1,-1.496822357E0,-9.090170860E-1
4.071481719E0,8.354187757E-2,-1.411713600E0,-9.486293793E-1
4.076518333E0,1.351756975E-2,-1.345821857E0,-1.062361717E0
4.081554948E0,-5.851488560E-2,-1.198621273E0,-1.046791315E0
4.086591615E0,-1.516436338E-1,-1.082717896E0,-9.952385426E-1
4.091628229E0,-2.133253813E-1,-9.597158432E-1,-1.006033897E0
4.096664896E0,-2.174091935E-1,-8.438634872E-1,-1.024358749E0
4.101717656E0,-2.067803890E-1,-6.705846786E-1,-9.568126202E-1
4.106754271E0,-1.863733083E-1,-4.975013733E-1,-8.462340832E-1
4.111790937E0,-1.440531760E-1,-3.030338287E-1,-7.813112736E-1
4.116827552E0,-1.060642749E-1,-4.421424866E-2,-8.048641682E-1
4.121864167E0,-7.973280549E-2,2.024164200E-1,-8.907141685E-1
4.126900833E0,-6.739720702E-2,4.871988297E-1,-9.217479229E-1
4.131976875E0,-1.145191938E-1,7.671756744E-1,-9.701998234E-1
4.137013490E0,-2.069275081E-1,1.023325920E0,-1.000441790E0
4.142050156E0,-2.778676450E-1,1.286950111E0,-9.961850643E-1
4.147086771E0,-2.842712104E-1,1.543750763E0,-9.887280464E-1
4.152123385E0,-3.749717772E-1,1.729251862E0,-9.161744118E-1
4.157160052E0,-5.931330919E-1,1.946342468E0,-7.832021713E-1
4.162262604E0,-8.674822450E-1,2.073019981E0,-6.714177132E-1
4.167299271E0,-1.050621510E0,2.149786949E0,-4.773085117E-1
4.172335937E0,-1.068374157E0,2.133740425E0,-1.246576309E-1
4.177372552E0,-9.946331978E-1,2.146887779E0,3.316717148E-1
4.182409167E0,-8.843779564E-1,2.253266335E0,1.000487328E0
4.187445833E0,-7.664775252E-1,2.344827652E0,1.571121931E0
4.192517344E0,-5.090528727E-1,2.347396851E0,1.869114161E0
4.197553958E0,-2.574718893E-1,2.413997650E0,2.354718447E0
4.202590625E0,1.614038199E-1,2.510774612E0,2.882486582E0
4.207627240E0,5.953724980E-1,2.594528198E0,3.246921778E0
4.212663854E0,9.664739966E-1,2.703625679E0,3.462507010E0
4.217700521E0,1.198962688E0,2.806679726E0,3.788478613E0
4.222775573E0,1.350540400E0,2.975400925E0,3.779865265E0
4.227813490E0,1.363609314E0,3.190452576E0,3.667018652E0
4.232851406E0,1.168894529E0,3.217479706E0,3.485579491E0
4.237889375E0,7.610961795E-1,3.114082336E0,3.168719530E0
4.242927292E0,2.834763825E-1,3.107837677E0,2.984246969E0
4.247965208E0,-2.141156793E-1,3.134300232E0,2.632277012E0
4.253035521E0,-6.365534067E-1,3.193624496E0,2.014419079E0
4.258073437E0,-8.416798711E-1,3.355814934E0,1.134069920E0
4.263111354E0,-9.570346475E-1,3.623490334E0,3.231971264E-1
4.268149323E0,-1.038041592E0,3.893907547E0,-3.424408436E-1
4.273187240E0,-1.166623592E0,4.153038025E0,-1.000304699E0
4.278225156E0,-1.516212940E0,4.264961243E0,-1.685207844E0
4.283295208E0,-1.950748444E0,4.275839806E0,-2.207115173E0
4.288333125E0,-2.410976171E0,4.169441223E0,-2.404614687E0
4.293371094E0,-2.753643036E0,3.840888977E0,-2.254822254E0
4.298409010E0,-2.988740921E0,3.266274452E0,-1.613989830E0
4.303446927E0,-2.883702040E0,2.495659828E0,-4.789628983E-1
4.308484844E0,-2.442668915E0,1.813183784E0,8.910725117E-1
4.313555833E0,-1.871224165E0,1.174755096E0,2.395253420E0
4.318593750E0,-1.098801613E0,6.939296722E-1,3.907291889E0
4.323631667E0,-3.662265539E-1,1.925144196E-1,5.336147785E0
4.328669583E0,2.516565323E-1,-3.087015152E-1,6.583327770E0
4.333707552E0,7.393435836E-1,-7.075595856E-1,7.464086056E0
4.338745469E0,1.023166895E0,-9.973278046E-1,7.752231121E0
4.343791562E0,1.141758680E0,-1.202176094E0,7.549183846E0
4.348829479E0,9.820562601E-1,-1.324329853E0,6.900308132E0
4.353867396E0,6.058077812E-1,-1.520952225E0,5.887986660E0
4.358905365E0,1.848248541E-1,-1.693152905E0,4.905866623E0
4.363943281E0,-2.791193128E-1,-1.816471577E0,4.093811035E0
4.368981198E0,-6.785699129E-1,-1.900036335E0,3.321331501E0
4.374050156E0,-8.990994692E-1,-1.900462627E0,2.424879313E0
4.379088073E0,-1.159344196E0,-1.874525547E0,1.498533010E0
4.384125990E0,-1.280059814E0,-1.855456829E0,6.086125374E-1
4.389163906E0,-1.160436153E0,-1.828358650E0,-5.473756790E-2
4.394201823E0,-9.893754125E-1,-1.809564114E0,-6.387500763E-1
4.399239792E0,-8.187897205E-1,-1.813075066E0,-1.094095230E0
4.404331771E0,-6.675049067E-1,-1.838902473E0,-1.349114418E0
4.409369687E0,-5.567015409E-1,-1.862739563E0,-1.751896977E0
4.414407604E0,-3.335051239E-1,-1.886896133E0,-2.185374737E0
4.419445573E0,-1.558331847E-1,-1.870893478E0,-2.464862347E0
4.424483490E0,2.661991119E-2,-1.841239929E0,-2.609394550E0
4.429521406E0,2.403694093E-1,-1.872257233E0,-2.640345097E0
4.434592865E0,4.160501361E-1,-1.990177631E0,-2.792367458E0
4.439630781E0,4.465931654E-1,-2.149353981E0,-2.780752897E0
4.444668698E0,3.343093395E-1,-2.383162975E0,-2.754243374E0
4.449706667E0,2.991265357E-1,-2.550487995E0,-2.681431770E0
4.454744583E0,2.477248609E-1,-2.766320705E0,-2.571731329E0
4.459782500E0,1.725415736E-1,-2.970962048E0,-2.403212786E0
4.464849635E0,8.483532071E-2,-3.172013760E0,-2.127095938E0
4.469887552E0,1.134627759E-1,-3.279106617E0,-1.792409778E0
4.474925469E0,4.140335321E-1,-3.153997421E0,-1.434083462E0
4.479963437E0,8.721213341E-1,-3.022300243E0,-1.230481148E0
4.485001302E0,1.212814093E0,-2.958301067E0,-1.267264605E0
4.490039271E0,1.496134877E0,-2.921203613E0,-1.398308277E0
4.495152396E0,1.581020474E0,-2.877518654E0,-1.432026625E0
4.500190312E0,1.549463987E0,-2.803641796E0,-1.487429857E0
4.505228229E0,1.554215670E0,-2.728241444E0,-1.650870800E0
4.510266198E0,1.542737365E0,-2.565135479E0,-1.900830507E0
4.515304115E0,1.568084002E0,-2.369295120E0,-2.163418770E0
4.520342031E0,1.622611761E0,-2.094959736E0,-2.779204845E0
4.525373021E0,1.490831494E0,-1.835479736E0,-3.197610617E0
4.530410937E0,1.192004800E0,-1.734206676E0,-3.337973833E0
4.535448854E0,9.894957542E-1,-1.625707626E0,-3.437857151E0
4.540486823E0,1.031972766E0,-1.488165379E0,-3.682199955E0
4.545524740E0,1.154637933E0,-1.280644417E0,-3.985360622E0
4.550562656E0,1.142706871E0,-1.165607452E0,-4.051295280E0
4.555627812E0,9.800127149E-1,-1.111418724E0,-4.075025082E0
4.560665729E0,8.563362360E-1,-1.120122433E0,-4.088266850E0
4.565703646E0,8.894265890E-1,-1.165109158E0,-4.065116405E0
4.570741615E0,7.105717659E-1,-1.196157455E0,-3.933589458E0
4.575779531E0,3.339932561E-1,-1.237368107E0,-3.604845285E0
4.580817448E0,8.471671492E-2,-1.356043816E0,-3.188353062E0
4.585859115E0,-2.838455141E-2,-1.471080780E0,-2.805410862E0
4.590897031E0,-1.685351729E-1,-1.501632214E0,-2.359131098E0
4.595935000E0,-3.336757720E-1,-1.570121288E0,-1.856089354E0
4.600972917E0,-5.144591331E-1,-1.576233864E0,-1.396368504E0
4.606010833E0,-7.471276522E-1,-1.596724033E0,-9.796788692E-1
4.611048750E0,-9.815053940E-1,-1.758532524E0,-2.922358513E-1
4.616120625E0,-1.176653624E0,-1.896690369E0,5.585627556E-1
4.621158542E0,-1.227809668E0,-1.844663620E0,1.246544361E0
4.626196458E0,-1.144897819E0,-1.605728626E0,1.753980160E0
4.631234427E0,-1.182045817E0,-1.498664856E0,2.131886482E0
4.636272344E0,-1.363599777E0,-1.356030941E0,2.282569885E0
4.641310260E0,-1.584607959E0,-1.067867756E0,2.318719864E0
4.646404062E0,-1.615080953E0,-7.276196480E-1,2.264264107E0
4.651441979E0,-1.575134158E0,-3.329257965E-1,2.092849255E0
4.656479896E0,-1.444862008E0,1.189832687E-1,1.827731609E0
4.661517865E0,-1.477791548E0,6.046714783E-1,1.546891689E0
4.666555781E0,-1.623566866E0,1.064708710E0,1.091592312E0
4.671593698E0,-1.767813563E0,1.590434074E0,6.095514297E-1
4.676661250E0,-1.912829399E0,2.170532227E0,1.017465591E-1
4.681699167E0,-2.207593918E0,2.671257019E0,-2.554345131E-1
4.686737083E0,-2.418292522E0,3.169398308E0,-4.697496891E-1
4.691775052E0,-2.531353712E0,3.672155380E0,-5.893788338E-1
4.696812969E0,-2.623995304E0,4.186700821E0,-6.863121986E-1
4.701850885E0,-2.483727455E0,4.734555244E0,-7.152020931E-1
4.706923594E0,-2.134498119E0,5.153019905E0,-4.847764969E-1
4.711961510E0,-1.827476025E0,5.449224472E0,-1.408224106E-1
4.716999427E0,-1.763390541E0,5.802554131E0,5.083718300E-1
4.722037396E0,-1.556448460E0,6.028516769E0,1.039411545E0
4.727075312E0,-1.240702510E0,6.067273140E0,1.491094589E0
4.732113229E0,-1.045912981E0,5.959063530E0,2.553959370E0
4.737181771E0,-8.021558523E-1,5.861098289E0,3.599854469E0
4.742220781E0,-5.113532543E-1,5.851640701E0,4.534618855E0
4.747259740E0,-2.240017653E-1,5.764456749E0,5.396501064E0
4.752298750E0,1.885980815E-1,5.723441124E0,5.722843170E0
4.757337708E0,9.185115099E-1,5.860027313E0,5.866567135E0
4.762376719E0,1.864463329E0,6.087968826E0,5.947813034E0
4.767438021E0,2.502076626E0,6.266418457E0,5.686369896E0
4.772477031E0,2.857604027E0,6.490159035E0,4.984380722E0
4.777515990E0,3.057507277E0,6.688687325E0,3.887636185E0
4.782555000E0,3.098531723E0,6.724690437E0,2.517988682E0
4.787593958E0,2.881174088E0,6.673867226E0,1.126276970E0
4.792632969E0,2.463918686E0,6.501626015E0,4.688477516E-2
4.797695885E0,2.067706347E0,6.044056892E0,-9.004044533E-1
4.802734896E0,1.632431746E0,5.252071381E0,-1.586506128E0
4.807773854E0,1.051627159E0,4.162249565E0,-2.041551590E0
4.812812865E0,3.214241564E-1,3.042696953E0,-1.942613721E0
4.817851823E0,-3.698067069E-1,2.005677223E0,-1.488577366E0
4.822890833E0,-7.453786135E-1,9.146595001E-1,-9.286110401E-1
4.827929479E0,-9.043368101E-1,-1.107969284E-1,-2.839612961E-1
4.832968490E0,-9.600970745E-1,-1.083609581E0,8.112356663E-1
4.838007448E0,-9.494619370E-1,-2.014653683E0,2.230416536E0
4.843046458E0,-8.687838316E-1,-2.878931522E0,3.509762287E0
4.848085417E0,-9.521011710E-1,-3.680423737E0,4.617010117E0
4.853124427E0,-1.048055768E0,-4.241367340E0,5.534292221E0
4.858193177E0,-1.155885816E0,-4.546620369E0,6.247726917E0
4.863232187E0,-1.416588306E0,-4.707820415E0,6.609223366E0
4.868271146E0,-1.745532751E0,-4.749851227E0,6.589471817E0
4.873310156E0,-1.928377509E0,-4.526891232E0,6.004421234E0
4.878349115E0,-1.814934969E0,-4.148581028E0,4.848280907E0
4.883388125E0,-1.586660385E0,-3.633057117E0,3.523625851E0
4.888416667E0,-1.275221348E0,-2.986140251E0,2.195078850E0
4.893455625E0,-9.098576307E-1,-2.314182281E0,8.285174370E-1
4.898494635E0,-4.744654298E-1,-1.601462841E0,-4.641928673E-1
4.903533594E0,6.563952565E-2,-9.452085495E-1,-1.486649036E0
4.908572604E0,6.041606665E-1,-3.470506668E-1,-2.257553339E0
4.913611562E0,1.003485441E0,5.715274811E-2,-2.842953682E0
4.918731927E0,1.297764540E0,2.724533081E-1,-2.939404249E0
4.923770937E0,1.713900089E0,4.382505417E-1,-2.950455904E0
4.928809896E0,2.158939600E0,5.016794205E-1,-2.700925589E0
4.933848906E0,2.461243153E0,4.744176865E-1,-2.123141766E0
4.938887865E0,2.731593609E0,4.064846039E-1,-1.427221775E0
4.943926875E0,3.013477325E0,3.020610809E-1,-7.863101959E-1
4.948991823E0,3.187104940E0,8.410263062E-2,-1.703097820E-1
4.954030833E0,3.060974598E0,-2.766695023E-1,6.044003963E-1
4.959069792E0,2.816689730E0,-5.966415405E-1,1.455802679E0
4.964108802E0,2.674205780E0,-8.120155334E-1,2.069799662E0
4.969147760E0,2.473031282E0,-1.124210358E0,2.318215370E0
4.974186771E0,2.188894749E0,-1.446992874E0,2.299586058E0
4.979250052E0,1.733003378E0,-1.713407516E0,2.172229052E0
4.984289062E0,1.162488222E0,-1.963950634E0,1.894971371E0
4.989328021E0,7.115918398E-1,-2.251050949E0,1.467440605E0
4.994367031E0,4.179612398E-1,-2.464448452E0,1.001875162E0
4.999405990E0,9.670004994E-2,-2.637691021E0,5.532469749E-1
5.004445000E0,-2.000127435E-1,-2.823424339E0,1.501328945E-1
5.009507187E0,-5.154714584E-1,-2.940184116E0,-2.029883862E-1
5.014546198E0,-8.744775057E-1,-3.243790627E0,-8.394286633E-1
5.019585156E0,-1.174675465E0,-3.461232662E0,-1.112980127E0
5.024624167E0,-1.378203154E0,-3.659674168E0,-1.370871544E0
5.029663125E0,-1.539928794E0,-3.853457928E0,-1.455296278E0
5.034702135E0,-1.585745215E0,-4.040122509E0,-1.732710838E0
5.039767187E0,-1.637726784E0,-4.255259991E0,-2.021802187E0
5.044806198E0,-1.671717882E0,-4.400472641E0,-2.373456955E0
5.049845156E0,-1.685841084E0,-4.487751961E0,-2.637072563E0
5.054884167E0,-1.706632853E0,-4.512272358E0,-2.937490702E0
5.059923125E0,-1.714854717E0,-4.524474144E0,-3.071004629E0
5.064962135E0,-1.686589360E0,-4.529093266E0,-3.083455563E0
5.070029687E0,-1.665106893E0,-4.588226318E0,-3.329406977E0
5.075068646E0,-1.636069536E0,-4.570057392E0,-3.454888105E0
5.080107656E0,-1.580427408E0,-4.565649509E0,-3.318774700E0
5.085146667E0,-1.428525329E0,-4.510279179E0,-3.390565395E0
5.090185625E0,-1.290429115E0,-4.372864723E0,-3.378209829E0
5.095224635E0,-1.206783652E0,-4.191671371E0,-3.368226290E0
5.100261875E0,-1.062249422E0,-4.052768230E0,-3.418271065E0
5.105300885E0,-8.255784512E-1,-3.881937504E0,-3.341605425E0
5.110339844E0,-5.660293102E-1,-3.619390488E0,-3.150346279E0
5.115378854E0,-2.688790858E-1,-3.301231861E0,-3.014181376E0
5.120417812E0,-5.886316299E-3,-2.968336105E0,-2.908750057E0
5.125456823E0,1.537923813E-1,-2.651920795E0,-2.816983700E0
5.130521562E0,1.861890256E-1,-2.414006710E0,-2.677047968E0
5.135560573E0,2.230417579E-1,-2.187592030E0,-2.486359119E0
5.140599531E0,2.741526365E-1,-1.888927460E0,-2.218610764E0
5.145638542E0,3.559531569E-1,-1.599596024E0,-1.914185762E0
5.150677500E0,3.847306967E-1,-1.343576431E0,-1.551397562E0
5.155716510E0,3.653395474E-1,-1.106661320E0,-1.141796589E0
5.160803490E0,4.029140472E-1,-8.697605133E-1,-7.067792416E-1
5.165842500E0,5.575910211E-1,-6.405496597E-1,-1.614320278E-1
5.170881458E0,6.925649047E-1,-4.122934341E-1,3.635716438E-1
5.175920469E0,7.650357485E-1,-1.469898224E-1,8.473422527E-1
5.180959427E0,8.257500529E-1,1.167736053E-1,1.300068378E0
5.185998437E0,7.621924877E-1,3.765029907E-1,1.595164776E0
5.191068333E0,6.029356718E-1,6.848764420E-1,1.742276669E0
5.196107344E0,5.441533327E-1,1.141996384E0,1.811679602E0
5.201146302E0,5.043642521E-1,1.575288773E0,1.920967579E0
5.206185312E0,4.406642020E-1,2.109210014E0,1.969553232E0
5.211224271E0,4.846163988E-1,2.672163963E0,1.650567770E0
5.216263281E0,5.523266792E-1,3.338461876E0,1.255956411E0
5.221323958E0,6.510596871E-1,4.065141678E0,9.695217609E-1
5.226362969E0,4.483431578E-1,4.457860947E0,7.253909111E-1
5.231401927E0,1.334421337E-2,4.725834846E0,4.765925407E-1
5.236440937E0,-1.923729181E-1,4.943743706E0,4.807269573E-1
5.241479896E0,-2.528191507E-1,5.044632912E0,7.758243084E-1
5.246518906E0,-3.174577951E-1,5.107337952E0,1.067944288E0
5.251581823E0,-5.644541979E-2,5.294019699E0,1.559478045E0
5.256621667E0,5.157414675E-1,5.355178833E0,2.162925243E0
5.261661458E0,8.192286491E-1,5.273246765E0,2.825568676E0
5.266701302E0,1.217725039E0,5.310410500E0,3.748864651E0
5.271741094E0,1.826259255E0,5.341058731E0,4.413666725E0
5.276780937E0,2.470262527E0,5.378929138E0,4.690608025E0
5.281839896E0,3.064009190E0,5.452466965E0,4.588526726E0
5.286879740E0,3.520687103E0,5.466388702E0,4.191024303E0
5.291919531E0,3.982777119E0,5.608088493E0,3.356190205E0
5.296959375E0,4.802108288E0,6.036203384E0,2.262073755E0
5.301999167E0,5.584548473E0,6.481151581E0,1.078230619E0
5.307039010E0,5.890294552E0,6.848797798E0,-2.740645409E-1
5.312099948E0,5.637587547E0,6.949357033E0,-1.777903199E0
5.317139792E0,5.043543816E0,6.914290428E0,-3.057003260E0
5.322179583E0,4.352261543E0,6.654214859E0,-4.581059456E0
5.327219427E0,3.599033117E0,6.383392334E0,-5.636503220E0
5.332259219E0,2.607357979E0,6.011341095E0,-6.326482773E0
5.337299062E0,1.257239819E0,5.296320915E0,-6.389961720E0
5.342337604E0,-1.120564938E-1,4.561178207E0,-5.830144882E0
5.347377448E0,-1.026394606E0,3.826700211E0,-4.673473358E0
5.352417240E0,-1.444171071E0,2.836118698E0,-3.099538565E0
5.357457083E0,-1.488292933E0,1.730168343E0,-1.558168054E0
5.362496875E0,-1.269321322E0,7.930593491E-1,-4.922771454E-2
5.367536719E0,-1.005475163E0,-9.109973907E-2,1.475857973E0
5.372592396E0,-6.438597441E-1,-8.562908173E-1,3.027307749E0
5.377632240E0,-3.429066241E-1,-1.522707939E0,4.273084164E0
5.382672031E0,-2.751525044E-1,-2.203723431E0,5.318835258E0
5.387711875E0,-2.058355957E-1,-2.680211544E0,6.502614021E0
5.392751667E0,-1.159545928E-1,-2.900483608E0,7.137010574E0
5.397791510E0,-2.741640806E-1,-3.154738426E0,7.230761051E0
5.402876823E0,-5.346823931E-1,-3.397182941E0,6.706871986E0
5.407916667E0,-8.776863813E-1,-3.438311100E0,5.861070633E0
5.412956458E0,-1.171179056E0,-3.387864113E0,5.139342785E0
5.417996302E0,-1.518204570E0,-3.317082405E0,4.194974899E0
5.423036094E0,-1.909769058E0,-3.115176201E0,2.989965439E0
5.428075937E0,-2.216876507E0,-2.748129845E0,1.828700542E0
5.433140729E0,-2.382186413E0,-2.220395088E0,6.926119328E-1
5.438180573E0,-2.235577345E0,-1.658209801E0,-3.992404938E-1
5.443220365E0,-1.884443879E0,-1.235579491E0,-1.446696639E0
5.448260208E0,-1.747171283E0,-9.663352966E-1,-1.922171354E0
5.453300000E0,-1.742115021E0,-8.335752487E-1,-1.831028581E0
5.458339844E0,-1.583735585E0,-8.039302826E-1,-1.448072433E0
5.463395417E0,-1.216602564E0,-8.799295425E-1,-1.031069279E0
5.468435260E0,-7.503863573E-1,-1.011688232E0,-4.802837372E-1
5.473475052E0,-3.545778692E-1,-1.190163612E0,1.653773785E-1
5.478514896E0,-7.689093053E-2,-1.379909515E0,7.901160717E-1
5.483554687E0,9.964750707E-2,-1.693795204E0,1.356984377E0
5.488594531E0,2.638951242E-1,-1.995733261E0,1.829025269E0
5.493639167E0,4.114367962E-1,-2.250154495E0,2.137808084E0
5.498679010E0,4.874284267E-1,-2.488371372E0,2.219290257E0
5.503718802E0,4.558335245E-1,-2.755920410E0,2.169519424E0
5.508758646E0,3.717793822E-1,-3.016909599E0,2.026946545E0
5.513798437E0,2.589693367E-1,-3.268909931E0,1.817794085E0
5.518838281E0,1.650140136E-1,-3.471266747E0,1.520559788E0
5.523911302E0,1.017036289E-1,-3.607222557E0,1.111167908E0
5.528951146E0,5.204384029E-2,-3.753370285E0,6.541771889E-1
5.533990937E0,-5.612096190E-2,-3.806706905E0,2.425990105E-1
5.539030781E0,-1.534746289E-1,-3.843915939E0,-1.140608788E-1
5.544070573E0,-1.636805683E-1,-3.864966393E0,-5.045592785E-1
5.549110417E0,-1.228776425E-1,-3.881651878E0,-9.485032558E-1
5.554172031E0,-4.547871649E-2,-3.855665207E0,-1.295180798E0
5.559211875E0,2.122335136E-2,-3.839663982E0,-1.504080534E0
5.564251667E0,1.323518753E-1,-3.869549274E0,-1.831299424E0
5.569291510E0,2.760777473E-1,-3.901945591E0,-2.095499992E0
5.574331302E0,3.881464303E-1,-3.884249687E0,-2.260754585E0
5.579371146E0,4.762872458E-1,-3.857004166E0,-2.449682951E0
5.584407396E0,6.080023050E-1,-3.843936443E0,-2.684315205E0
5.589447240E0,7.958269119E-1,-3.792253494E0,-2.900339603E0
5.594487031E0,9.303013682E-1,-3.682729721E0,-3.081364870E0
5.599526875E0,1.009721637E0,-3.584568977E0,-3.285490274E0
5.604566667E0,9.625359178E-1,-3.442594528E0,-3.458004713E0
5.609606510E0,8.297835588E-1,-3.338128567E0,-3.584784031E0
5.614666823E0,5.755394101E-1,-3.232662678E0,-3.563447714E0
5.619706667E0,2.927823067E-1,-3.176269054E0,-3.842001915E0
5.624746458E0,8.174881339E-2,-3.099424362E0,-3.903434992E0
5.629786302E0,-1.223267764E-1,-2.971031666E0,-3.786287785E0
5.634826094E0,-4.060817957E-1,-2.858258247E0,-3.629197836E0
5.639865937E0,-6.500358582E-1,-2.777943611E0,-3.374439716E0
5.644924740E0,-8.088818789E-1,-2.684631348E0,-3.086551666E0
5.649964583E0,-9.955346584E-1,-2.633560181E0,-2.791352749E0
5.655004375E0,-1.166943192E0,-2.579327583E0,-2.445455074E0
5.660044219E0,-1.263446331E0,-2.495765686E0,-2.026988983E0
5.665084010E0,-1.435878634E0,-2.476325035E0,-1.566844225E0
5.670123854E0,-1.602767706E0,-2.420722008E0,-1.083514929E0
5.675208542E0,-1.809595346E0,-2.364866257E0,-6.057686806E-1
5.680248385E0,-2.102741718E0,-2.242228031E0,-3.096499443E-1
5.685288177E0,-2.461463928E0,-2.072167873E0,4.452967644E-2
5.690328021E0,-2.786127329E0,-1.781148911E0,4.817819595E-1
5.695367812E0,-3.015420914E0,-1.455762386E0,7.513070107E-1
5.700407656E0,-3.052037954E0,-1.007783890E0,9.278912544E-1
5.705467396E0,-2.963280439E0,-5.427427292E-1,1.136170387E0
5.710507240E0,-2.772899389E0,-5.364799500E-2,1.400335789E0
5.715547031E0,-2.459011555E0,5.312480927E-1,1.591082096E0
5.720586875E0,-2.110048294E0,1.262155533E0,1.658044815E0
5.725626667E0,-1.792659521E0,2.014532089E0,1.608442783E0
5.730666510E0,-1.367388725E0,2.702323914E0,1.705416203E0
5.735725208E0,-8.835880756E-1,3.395146370E0,1.886320114E0
5.740765052E0,-4.284873307E-1,4.049948692E0,2.029073238E0
5.745804844E0,5.623383820E-2,4.714659691E0,2.038014889E0
5.750844687E0,4.538402855E-1,5.363212585E0,1.841000557E0
5.755884479E0,7.909139395E-1,5.936089516E0,1.540587425E0
5.760924323E0,1.029105067E0,6.529266357E0,1.330302715E0
5.765982708E0,1.158640027E0,6.968072891E0,1.162148476E0
5.771023177E0,1.097639918E0,7.243227959E0,9.353456497E-1
5.776063698E0,9.531555772E-1,7.402959824E0,7.907094955E-1
5.781104167E0,7.650089264E-1,7.440171242E0,7.641091347E-1
5.786144635E0,5.296530724E-1,7.302362442E0,8.816976547E-1
5.791185104E0,2.915706336E-1,7.015620232E0,1.160951614E0
5.796209948E0,1.615163684E-2,6.538929939E0,1.696098804E0
5.801250417E0,-1.080093831E-1,6.072840691E0,2.371046543E0
5.806290885E0,1.010838225E-1,5.772580147E0,2.834650993E0
5.811331406E0,4.286879897E-1,5.664230347E0,3.113751888E0
5.816371875E0,7.994819880E-1,5.656654358E0,3.459970951E0
5.821412344E0,1.260634065E0,5.743080139E0,3.283704758E0
5.826478802E0,1.593172073E0,5.864276886E0,2.782766819E0
5.831519271E0,1.825594306E0,6.009341240E0,2.251807690E0
5.836559792E0,1.966447473E0,6.047616005E0,1.647937536E0
5.841600260E0,1.966993093E0,6.025679588E0,1.114751816E0
5.846640729E0,1.772952318E0,5.798232079E0,5.932095051E-1
5.851681198E0,1.319484472E0,5.363638878E0,5.320191383E-2
5.856736823E0,6.608136892E-1,4.753432274E0,-2.186985016E-1
5.861777292E0,1.976381987E-3,3.958370209E0,-3.093142509E-1
5.866817812E0,-4.659001529E-1,2.976400375E0,-1.067025661E-1
5.871858281E0,-8.387746811E-1,1.908510208E0,3.881809711E-1
5.876898750E0,-1.200889230E0,7.689008713E-1,1.245120764E0
5.881939219E0,-1.356072426E0,-3.781318665E-1,2.249473810E0
5.886995937E0,-1.340661526E0,-1.430210114E0,3.266119003E0
5.892036406E0,-1.256144047E0,-2.369272709E0,4.213739395E0
5.897076927E0,-1.192003012E0,-3.170090675E0,5.123417377E0
5.902117396E0,-1.178273082E0,-3.984756947E0,5.794520378E0
5.907157865E0,-1.482847929E0,-4.626072884E0,6.824545860E0
5.912198333E0,-1.868313789E0,-4.971487522E0,7.450700283E0
5.917275000E0,-2.214917898E0,-5.163652420E0,7.548694611E0
5.922315469E0,-2.508564711E0,-5.184365273E0,7.228050232E0
5.927355990E0,-2.494102240E0,-4.885538578E0,6.589692116E0
5.932396458E0,-2.171648979E0,-4.214164734E0,5.474553585E0
5.937436927E0,-1.451282740E0,-3.250433445E0,3.968572140E0
5.942477396E0,-6.516888142E-1,-2.359268665E0,2.602911949E0
5.947536146E0,-9.416186810E-2,-1.501149654E0,1.427816391E0
5.952576615E0,2.826950550E-1,-7.012090683E-1,3.091106415E-1
5.957617135E0,7.457124591E-1,-1.260299683E-1,-6.378068924E-1
5.962657604E0,1.240646839E0,4.047622681E-1,-1.625186682E0
5.967698073E0,1.855164409E0,9.947195053E-1,-2.259713411E0
5.972738542E0,2.497993231E0,1.292505264E0,-2.507117987E0
5.977794583E0,2.996303558E0,1.408788681E0,-2.536186457E0
5.982835052E0,3.318192720E0,1.363128662E0,-2.443597794E0
5.987875573E0,3.529370070E0,1.258519173E0,-2.258241415E0
5.992916042E0,3.656784058E0,1.044404984E0,-1.833516121E0
5.997956510E0,3.650310516E0,6.772108078E-1,-1.182586908E0
6.002996979E0,3.531157732E0,3.190250397E-1,-5.000131130E-1
6.008054375E0,3.126420975E0,-3.038568497E-1,1.949427128E-1
6.013094844E0,2.463754654E0,-9.431123734E-1,8.349156380E-1
6.018135365E0,1.831975102E0,-1.505783558E0,1.265384436E0
6.023175833E0,1.259127259E0,-2.004141331E0,1.439297438E0
6.028216302E0,6.942844987E-1,-2.407256603E0,1.359615564E0
6.033256823E0,1.745748222E-1,-2.729609966E0,1.218106985E0
6.038313229E0,-3.625557423E-1,-3.045506954E0,9.957969189E-1
6.043353698E0,-8.385384083E-1,-3.330801964E0,6.659548283E-1
6.048394219E0,-1.252024412E0,-3.506429195E0,1.948692799E-1
6.053434687E0,-1.601131201E0,-3.677779675E0,-1.948287487E-1
6.058475156E0,-1.888785005E0,-3.837793827E0,-4.168748856E-1
6.063515625E0,-2.225735664E0,-3.948004723E0,-7.710366249E-1
6.068544219E0,-2.528308630E0,-4.173376083E0,-1.056626320E0
6.073584687E0,-2.741352081E0,-4.369907379E0,-1.365375996E0
6.078625208E0,-2.881878138E0,-4.606877327E0,-1.661722183E0
6.083665677E0,-3.017344952E0,-4.699912071E0,-1.902901053E0
6.088706146E0,-3.025547743E0,-4.725571632E0,-2.130088329E0
6.093746615E0,-3.019205570E0,-4.853932858E0,-2.242563486E0
6.098806823E0,-3.091580629E0,-4.888473034E0,-2.425205708E0
6.103847292E0,-3.079916954E0,-4.941667557E0,-2.481971741E0
6.108887812E0,-2.940933466E0,-4.982425213E0,-2.537344456E0
6.113928281E0,-2.832875013E0,-4.962880611E0,-2.665593624E0
6.118968750E0,-2.688674927E0,-4.887814045E0,-2.716097355E0
6.124009219E0,-2.361995220E0,-4.687962055E0,-2.753403425E0
6.129065417E0,-2.051260710E0,-4.404202461E0,-2.774993896E0
6.134105885E0,-1.866421819E0,-4.170437813E0,-2.860265732E0
6.139146406E0,-1.745233893E0,-3.969736099E0,-2.968755722E0
6.144186875E0,-1.630293131E0,-3.718232155E0,-3.079103470E0
6.149227344E0,-1.512227297E0,-3.482892036E0,-3.131699324E0
6.154267812E0,-1.341035366E0,-3.175285339E0,-3.107201576E0
6.159352135E0,-1.224611282E0,-2.939182281E0,-2.957537889E0
6.164392604E0,-1.050030470E0,-2.695772648E0,-2.658344269E0
6.169433125E0,-8.341432810E-1,-2.466724396E0,-2.396101952E0
6.174473594E0,-6.729117632E-1,-2.206654549E0,-2.194458723E0
6.179514062E0,-4.871013761E-1,-1.980326176E0,-1.933384180E0
6.184554531E0,-2.670309544E-1,-1.716032028E0,-1.717940092E0
6.189609635E0,-7.961429656E-2,-1.471361637E0,-1.418566704E0
6.194650104E0,-3.201665729E-2,-1.318199158E0,-1.013505697E0
6.199690625E0,2.198710293E-2,-1.139196873E0,-7.421302795E-1
6.204731094E0,9.199591726E-2,-9.752669334E-1,-4.339296818E-1
6.209771562E0,2.547240853E-1,-8.002815247E-1,-1.339368820E-1
6.214812031E0,4.507230520E-1,-5.188274384E-1,1.130166054E-1
6.219869844E0,5.773624778E-1,-2.437801361E-1,3.052558899E-1
6.224910312E0,6.231096983E-1,8.244132996E-2,3.156852722E-1
6.229950833E0,5.977216959E-1,3.833618164E-1,1.848561764E-1
6.234991302E0,4.247787595E-1,7.119846344E-1,7.247495651E-2
6.240031771E0,2.311720699E-1,1.003993034E0,-6.766033173E-2
6.245072240E0,1.364846528E-1,1.316960335E0,-4.196739197E-2
6.250129687E0,4.228596389E-2,1.756230354E0,-9.970211983E-2
6.255170156E0,-1.508750021E-2,2.250023842E0,-2.506966591E-1
6.260210677E0,-9.594433010E-2,2.652700424E0,-4.645681381E-1
6.265251146E0,-2.654913068E-1,3.026707649E0,-7.080054283E-1
6.270291615E0,-4.019043744E-1,3.293169975E0,-6.556737423E-1
6.275332135E0,-4.552012086E-1,3.559885025E0,-4.706218243E-1
6.280385156E0,-4.017155468E-1,3.814705849E0,-3.128712177E-1
6.285426146E0,-1.388795078E-1,4.009713173E0,-7.929110527E-2
6.290467187E0,1.815935969E-1,4.228604317E0,5.092000961E-2
6.295508177E0,4.207491875E-1,4.360746384E0,7.658331394E-1
6.300549219E0,9.977291822E-1,4.463183403E0,1.474876404E0
6.305590260E0,1.751632571E0,4.633389473E0,2.115015030E0
6.310640677E0,2.663437605E0,4.918032646E0,2.987940073E0
6.315681667E0,3.705367327E0,5.344714165E0,3.707969904E0
6.320722708E0,4.835749626E0,5.816803932E0,4.178913116E0
6.325763698E0,5.953264713E0,6.245450020E0,4.195999146E0
6.330804740E0,6.942921162E0,6.745781898E0,3.816678286E0
6.335845781E0,7.632117748E0,7.256303787E0,2.970226765E0
6.340879896E0,7.978248596E0,7.603466034E0,2.042057037E0
6.345920885E0,7.964365959E0,7.752982140E0,9.880573750E-1
6.350961927E0,7.594872952E0,7.778529167E0,-2.486021519E-1
6.356002917E0,6.712792397E0,7.500157356E0,-1.445044518E0
6.361043958E0,5.600214958E0,7.173164368E0,-2.655035973E0
6.366085000E0,4.229504585E0,6.779308319E0,-3.600792170E0
6.371160937E0,2.548417807E0,6.170729637E0,-4.237969398E0
6.376201927E0,7.928112745E-1,5.439038277E0,-4.574826241E0
6.381242969E0,-8.194851875E-1,4.548753738E0,-4.770039558E0
6.386283958E0,-2.221928835E0,3.605321884E0,-4.646334648E0
6.391325000E0,-3.337628841E0,2.754512787E0,-3.853875160E0
6.396366042E0,-4.069977283E0,1.873510361E0,-2.678464174E0
6.401421927E0,-4.331723690E0,8.610982895E-1,-1.249847412E0
6.406462917E0,-4.135843277E0,-4.918479919E-2,3.677611351E-1
6.411503958E0,-3.712281466E0,-8.921995163E-1,2.031487703E0
6.416544948E0,-3.305361986E0,-1.743713856E0,3.759430170E0
6.421585990E0,-2.750005722E0,-2.334546566E0,5.094861507E0
6.426626979E0,-2.278010845E0,-2.776302814E0,6.488333225E0
6.431649167E0,-1.857572913E0,-3.084755421E0,7.676795006E0
6.436690156E0,-1.463985920E0,-3.229856968E0,8.434944153E0
6.441731198E0,-1.293408275E0,-3.202676296E0,8.558201790E0
6.446772187E0,-1.396372437E0,-3.235090733E0,8.101087570E0
6.451813229E0,-1.627423406E0,-3.250123501E0,7.269023895E0
6.456854219E0,-1.922551751E0,-3.038918972E0,6.216123581E0
6.461944844E0,-2.140393019E0,-2.737311363E0,5.065134048E0
6.466985833E0,-2.319403648E0,-2.404024124E0,3.904260874E0
6.472026875E0,-2.452097893E0,-2.033459187E0,2.659762859E0
6.477067865E0,-2.372658014E0,-1.569536686E0,1.429681301E0
6.482108906E0,-2.152483225E0,-1.056885719E0,2.978863716E-1
6.487149948E0,-1.876874924E0,-6.887931824E-1,-2.944409847E-1
6.492199687E0,-1.463382483E0,-4.193668365E-1,-6.619286537E-1
6.497240677E0,-1.042742252E0,-2.123355865E-1,-1.056613207E0
6.502281719E0,-7.625523210E-1,-5.564022064E-2,-1.071704149E0
6.507322708E0,-5.959141850E-1,-9.775066376E-2,-9.320232868E-1
6.512363750E0,-4.518743753E-1,-2.214412689E-1,-6.682181358E-1
6.517404792E0,-3.830248713E-1,-4.079504013E-1,-2.433245182E-1
6.522456875E0,-3.777695298E-1,-6.648759842E-1,1.977181435E-1
6.527497865E0,-3.818461895E-1,-1.007093430E0,6.347358227E-1
6.532538906E0,-4.437403083E-1,-1.356066704E0,1.138296366E0
6.537579896E0,-5.112196207E-1,-1.688398838E0,1.551609993E0
6.542620937E0,-5.491280556E-1,-1.978332043E0,1.904631615E0
6.547661979E0,-5.245428085E-1,-2.233541965E0,2.100260735E0
6.552714219E0,-4.449254870E-1,-2.437608242E0,2.184736490E0
6.557755208E0,-3.727678657E-1,-2.650650024E0,2.173049450E0
6.562796250E0,-2.744550705E-1,-2.848868847E0,2.113479137E0
6.567837240E0,-1.787354946E-1,-3.022631645E0,1.914982796E0
6.572878281E0,-1.454086900E-1,-3.231726646E0,1.639842749E0
6.577919323E0,-9.506803751E-2,-3.413677692E0,1.285331488E0
6.582954323E0,-7.970869541E-3,-3.539546967E0,9.348194599E-1
6.587995312E0,1.162524223E-1,-3.707269192E0,4.754424095E-1
6.593036354E0,1.341144741E-1,-3.861515999E0,-2.378463745E-2
6.598077344E0,1.825754941E-1,-3.999532223E0,-5.755615234E-1
6.603118385E0,2.138382196E-1,-4.223910332E0,-1.072833061E0
6.608159427E0,2.452290952E-1,-4.335730553E0,-1.456321478E0
6.613211198E0,2.314352542E-1,-4.346924782E0,-1.917952776E0
6.618252187E0,1.701829731E-1,-4.448553562E0,-2.473123789E0
6.623293229E0,1.021156609E-1,-4.515727043E0,-3.148978233E0
6.628334219E0,-4.914283752E-2,-4.493238926E0,-3.520078421E0
6.633375260E0,-2.261821628E-1,-4.548559666E0,-3.761825085E0
6.638416302E0,-3.116856515E-1,-4.573701859E0,-4.073591232E0
6.643495365E0,-2.889385521E-1,-4.570971489E0,-4.398234367E0
6.648536354E0,-2.388720214E-1,-4.528297901E0,-4.630843639E0
6.653577396E0,-1.613987684E-1,-4.474433422E0,-4.740492344E0
6.658618385E0,-1.090439856E-1,-4.332878113E0,-4.791835785E0
6.663659427E0,-1.274945140E-1,-4.209123611E0,-4.818193436E0
6.668700469E0,-1.374000013E-1,-4.083886623E0,-4.853380680E0
6.673751823E0,-1.315653622E-1,-3.940391541E0,-4.825673103E0
6.678792812E0,-1.772339046E-1,-3.824212074E0,-4.722939491E0
6.683833854E0,-2.217476368E-1,-3.651592255E0,-4.540400982E0
6.688874844E0,-2.700686753E-1,-3.484913826E0,-4.299380779E0
6.693915885E0,-3.200814724E-1,-3.300381184E0,-3.980419159E0
6.698956927E0,-3.551646769E-1,-3.174698830E0,-3.571279764E0
6.704008854E0,-4.953237772E-1,-3.052984238E0,-3.052351952E0
6.709049844E0,-6.185026765E-1,-2.858951569E0,-2.482849598E0
6.714090885E0,-6.675257087E-1,-2.549903393E0,-1.953042984E0
6.719131875E0,-7.098613977E-1,-2.193290710E0,-1.509982109E0
6.724172917E0,-6.622232199E-1,-1.760784626E0,-1.059506893E0
6.729213958E0,-5.271012783E-1,-1.233750343E0,-6.246130466E-1
6.734270000E0,-3.761547208E-1,-6.915512085E-1,-2.883589268E-1
6.739310990E0,-2.378390431E-1,-1.893424988E-1,4.613161087E-3
6.744352031E0,-1.167169064E-1,3.016080856E-1,2.232799530E-1
6.749393021E0,-4.363659024E-2,8.148756027E-1,3.771145344E-1
6.754434062E0,-2.070009708E-2,1.329072952E0,3.987824917E-1
6.759475104E0,5.048203468E-2,1.851661682E0,3.499903679E-1
6.764530937E0,8.833292127E-2,2.327741623E0,2.448387146E-1
6.769571927E0,7.384565473E-2,2.855649948E0,1.667060852E-1
6.774612969E0,8.113750815E-2,3.383018494E0,1.124148369E-1
6.779653958E0,1.127547473E-1,3.910132408E0,9.088754654E-2
6.784695000E0,2.046370506E-1,4.463424683E0,4.681158066E-2
6.789736042E0,3.495777845E-1,4.963902473E0,1.620812416E-1
6.794788646E0,4.135207534E-1,5.334943771E0,4.032912254E-1
6.799830104E0,2.597589791E-1,5.624539375E0,6.961522102E-1
6.804871562E0,-2.640929818E-2,5.868641853E0,8.994779587E-1
6.809913021E0,-2.469022870E-1,5.992802620E0,1.284443855E0
6.814954479E0,-3.903664351E-1,6.137831688E0,1.949962616E0
6.819976042E0,-4.336996675E-1,6.178822517E0,2.475563049E0
6.825017500E0,-4.519319236E-1,6.165321350E0,3.308142662E0
6.830058906E0,-3.521949649E-1,6.134791374E0,4.097462177E0
6.835100365E0,-1.536595523E-1,5.969357491E0,4.818674564E0
6.840141823E0,8.432313800E-2,5.867362976E0,5.379469395E0
6.845183281E0,5.012826920E-1,5.866855621E0,5.735032558E0
6.850224740E0,8.588701487E-1,5.790953636E0,5.787068367E0
6.855273490E0,1.208785653E0,5.728893280E0,5.580267906E0
6.860314948E0,1.505257964E0,5.796392441E0,5.261509418E0
6.865356354E0,1.630491257E0,5.867494583E0,4.613482475E0
6.870397812E0,1.573766112E0,5.917073250E0,3.624394417E0
6.875439271E0,1.446163535E0,5.972845078E0,2.502062321E0
6.880480729E0,1.327642441E0,5.837302208E0,1.512024403E0
6.885564427E0,1.137526035E0,5.619034767E0,7.528316975E-1
6.890605833E0,1.024812579E0,5.299826622E0,1.025316715E-1
6.895647240E0,6.972089410E-1,4.437792778E0,-2.993061543E-1
6.900688750E0,3.551617265E-4,3.143569946E0,-2.397665977E-1
6.905730156E0,-7.488536239E-1,1.888653755E0,3.605270386E-1
6.910771615E0,-1.228393555E0,6.461563110E-1,1.121906281E0
6.915813073E0,-1.674999475E0,-7.041635513E-1,1.761041641E0
6.920854531E0,-2.159866095E0,-1.940530300E0,2.691711426E0
6.925881354E0,-2.328198910E0,-2.851468563E0,3.607895374E0
6.930922760E0,-2.462314367E0,-3.550984859E0,4.256060123E0
6.935964219E0,-2.377140045E0,-4.148307323E0,4.856882095E0
6.941005677E0,-2.153584719E0,-4.436658859E0,5.211821556E0
6.946047135E0,-1.917487741E0,-4.388741493E0,5.471403122E0
6.951088542E0,-1.318999290E0,-3.969341278E0,5.360978603E0
6.956148229E0,-3.451978564E-1,-3.221178532E0,4.577837944E0
6.961189635E0,6.011320353E-1,-2.356604099E0,3.599343300E0
6.966231146E0,1.349257588E0,-1.485089302E0,2.766441345E0
6.971272552E0,1.960475206E0,-6.706609726E-1,2.085008144E0
6.976314010E0,2.563076496E0,2.263259888E-2,1.427121639E0
6.981355469E0,3.148846388E0,6.601905823E-1,7.675065994E-1
6.986397396E0,3.623088598E0,1.185131073E0,1.625962257E-1
6.991438854E0,3.857881784E0,1.485633850E0,-2.403931618E-1
6.996480312E0,3.952239513E0,1.648615837E0,-6.174778938E-1
7.001521719E0,3.985519648E0,1.701167107E0,-1.135083437E0
7.006563177E0,3.984569073E0,1.686735153E0,-1.161955833E0
7.011604635E0,3.866093397E0,1.483043671E0,-8.511242867E-1
7.016629896E0,3.615583897E0,1.135382652E0,-5.203444958E-1
7.021671354E0,3.292779446E0,7.271862030E-1,-1.063914299E-1
7.026712812E0,2.930751085E0,1.982040405E-1,3.247537613E-1
7.031754219E0,2.524557829E0,-2.842445374E-1,7.713437080E-1
7.036795677E0,2.002091408E0,-7.542810440E-1,1.215414524E0
7.041837135E0,1.412997127E0,-1.212357521E0,1.545427799E0
7.046935625E0,7.759590745E-1,-1.697017193E0,1.812272549E0
7.051977083E0,1.594774425E-1,-2.110699177E0,2.045856476E0
7.057018542E0,-3.029500544E-1,-2.446465492E0,2.138824940E0
7.062059948E0,-7.530688643E-1,-2.752446175E0,2.089288235E0
7.067101354E0,-1.189301729E0,-3.031137466E0,1.966895580E0
7.072142812E0,-1.547462106E0,-3.249192238E0,1.810204983E0
7.077170260E0,-1.871002436E0,-3.423418045E0,1.616807461E0
7.082211719E0,-2.121688366E0,-3.580109596E0,1.348297119E0
7.087253177E0,-2.338254690E0,-3.752665043E0,9.758148193E-1
7.092294635E0,-2.494493246E0,-3.895509243E0,5.973925591E-1
7.097336042E0,-2.616812468E0,-3.910557270E0,3.613333702E-1
7.102377500E0,-2.585791111E0,-3.986752987E0,-1.253371239E-1
7.107431667E0,-2.607319832E0,-4.125951767E0,-6.789746284E-1
7.112473125E0,-2.673756599E0,-4.153193951E0,-9.649586678E-1
7.117514583E0,-2.619820356E0,-4.150006771E0,-1.244296312E0
7.122555990E0,-2.363777876E0,-4.154504299E0,-1.462335348E0
7.127597448E0,-2.082576513E0,-4.235598564E0,-2.031569481E0
7.132638906E0,-1.974601865E0,-4.196706772E0,-2.377971649E0
7.137726042E0,-1.883977413E0,-4.203166962E0,-2.515953302E0
7.142767500E0,-1.707886457E0,-4.166327477E0,-2.718673706E0
7.147808958E0,-1.671806931E0,-4.134020329E0,-3.046041012E0
7.152850417E0,-1.541255236E0,-4.132351875E0,-3.462455034E0
7.157891875E0,-1.479110599E0,-4.067938328E0,-3.623375654E0
7.162933333E0,-1.401698351E0,-4.036409378E0,-3.802207470E0
7.167981302E0,-1.321195960E0,-3.948970795E0,-4.059256554E0
7.173022760E0,-1.177700162E0,-3.753043652E0,-4.171971321E0
7.178064219E0,-1.005053043E0,-3.608922482E0,-4.334644794E0
7.183105677E0,-6.666571498E-1,-3.394438744E0,-4.461284161E0
7.188147135E0,-2.699045539E-1,-3.159945488E0,-4.372448921E0
7.193188542E0,1.368390489E-2,-2.996408939E0,-4.199947834E0
7.198238073E0,2.610024214E-1,-2.884606838E0,-3.970197201E0
7.203279531E0,5.540360212E-1,-2.752807617E0,-3.726112843E0
7.208320990E0,9.097777009E-1,-2.524504662E0,-3.508334160E0
7.213362448E0,1.221182466E0,-2.300377369E0,-3.283195257E0
7.218403906E0,1.539131880E0,-2.099612713E0,-3.064970016E0
7.223445312E0,1.710916281E0,-1.948463440E0,-2.892032146E0
7.228501979E0,1.805856943E0,-1.779979706E0,-2.740185738E0
7.233543437E0,1.836176157E0,-1.572676182E0,-2.621318817E0
7.238584896E0,1.775184870E0,-1.372181416E0,-2.587746859E0
7.243626354E0,1.713464618E0,-1.195363522E0,-2.459627628E0
7.248667812E0,1.631735563E0,-1.015958786E0,-2.296697140E0
7.253709219E0,1.395663977E0,-8.075599670E-1,-2.199669361E0
7.258735937E0,1.162858486E0,-5.845470428E-1,-2.197170496E0
7.263777396E0,9.469128847E-1,-3.204870224E-1,-2.277378559E0
7.268818854E0,7.155638933E-1,-1.787471771E-2,-2.318014622E0
7.273860365E0,5.450427532E-1,3.424777985E-1,-2.302558184E0
7.278901771E0,4.469010532E-1,7.246017456E-1,-2.247775555E0
7.283943177E0,2.721127272E-1,1.056732178E0,-2.110684156E0
7.288991562E0,1.592938751E-1,1.410826683E0,-2.025573015E0
7.294033021E0,1.180009693E-1,1.781971931E0,-1.681099415E0
7.299074479E0,4.769366980E-2,2.203636169E0,-1.405291557E0
7.304115937E0,-6.830510497E-2,2.575311661E0,-1.217236757E0
7.309157396E0,-2.441295981E-2,3.033509254E0,-9.398612976E-1
7.314198802E0,2.420123518E-1,3.393711090E0,-5.417501926E-1
7.319258854E0,7.193334103E-1,3.809173584E0,-1.857438087E-1
7.324300365E0,1.214387536E0,4.186370850E0,3.223052025E-1
7.329341771E0,1.639258504E0,4.469865799E0,9.639711380E-1
7.334383229E0,2.221740246E0,4.800421715E0,1.625229359E0
7.339424687E0,3.031857014E0,5.268227577E0,2.228320599E0
7.344466094E0,3.814066648E0,5.779159546E0,2.817509174E0
7.349530469E0,4.423037052E0,6.239264488E0,3.288539886E0
7.354572292E0,4.962541580E0,6.722292900E0,3.489195824E0
7.359614115E0,5.572719097E0,7.307037354E0,3.592096806E0
7.364655990E0,6.166916847E0,7.847658157E0,3.572717190E0
7.369697812E0,6.423752785E0,8.143953323E0,3.211884975E0
7.374739635E0,6.222703457E0,8.304983139E0,2.787721634E0
7.379789583E0,5.716325283E0,8.387417793E0,2.275838852E0
7.384831406E0,4.921566486E0,8.158617973E0,1.608542919E0
7.389873229E0,3.938444614E0,7.811695099E0,1.073263168E0
7.394915104E0,2.791755199E0,7.177719116E0,8.505911827E-1
7.399956927E0,1.606252074E0,6.369598389E0,8.974013329E-1
7.404998750E0,5.875760913E-1,5.461094856E0,1.370566368E0
7.410048542E0,-4.662612081E-1,4.422818184E0,1.781042099E0
7.415090365E0,-1.031079769E0,3.517230034E0,2.377173424E0
7.420132240E0,-1.562487602E0,2.381940842E0,3.344730377E0
7.425174062E0,-1.902693629E0,1.219587326E0,4.539098263E0
7.430215937E0,-2.126141787E0,6.973361969E-2,5.658075333E0
7.435257760E0,-2.259371519E0,-1.064204693E0,6.737454414E0
7.440312187E0,-2.269084454E0,-2.078462601E0,7.755702972E0
7.445354010E0,-2.147758245E0,-2.759695053E0,8.710994720E0
7.450395833E0,-2.050907135E0,-3.219749928E0,9.323169708E0
7.455437656E0,-2.026989460E0,-3.560157776E0,9.321006775E0
7.460479531E0,-2.012000561E0,-3.783555508E0,8.868013382E0
7.465521354E0,-2.039244652E0,-3.882024288E0,8.001579285E0
7.470570000E0,-2.174693584E0,-3.705654621E0,6.666816711E0
7.475611823E0,-2.381886005E0,-3.353344917E0,5.057372093E0
7.480653646E0,-2.567061901E0,-2.950250626E0,3.397792816E0
7.485695521E0,-2.699182272E0,-2.468590736E0,1.891270638E0
7.490737344E0,-2.898215771E0,-2.012582779E0,6.814756393E-1
7.495779167E0,-3.027943611E0,-1.624265194E0,-5.616307259E-1
7.500803958E0,-2.942847252E0,-1.166292667E0,-1.660351753E0
7.505845781E0,-2.798898458E0,-7.101678848E-1,-2.551116705E0
7.510887604E0,-2.533453703E0,-3.893718719E-1,-3.141932726E0
7.515929479E0,-2.256246090E0,-1.962785721E-1,-3.467309952E0
7.520971302E0,-1.928671479E0,-1.308641434E-1,-3.477164268E0
7.526013125E0,-1.502145886E0,-1.863470078E-1,-3.247406483E0
7.531063906E0,-1.083969831E0,-3.676729202E-1,-2.720309019E0
7.536105729E0,-6.663348675E-1,-5.580873489E-1,-2.033751726E0
7.541147552E0,-2.391189486E-1,-7.942066193E-1,-1.382661819E0
7.546189427E0,4.230032861E-2,-1.079024792E0,-6.389131546E-1
7.551231250E0,2.260800898E-1,-1.377208233E0,1.698493958E-1
7.556273073E0,4.034096003E-1,-1.639327049E0,8.417387009E-1
7.561322552E0,6.149739623E-1,-1.865945339E0,1.315673351E0
7.566364375E0,7.815260887E-1,-2.050348759E0,1.587850571E0
7.571406198E0,8.695483208E-1,-2.207351208E0,1.805175781E0
7.576448073E0,8.476902246E-1,-2.337258816E0,1.894004822E0
7.581489896E0,7.634646893E-1,-2.447450638E0,1.780596256E0
7.586531719E0,6.858875751E-1,-2.542772770E0,1.580079079E0
7.591604948E0,6.049323082E-1,-2.642376423E0,1.311672688E0
7.596646771E0,5.924316645E-1,-2.717540264E0,1.052023411E0
7.601688594E0,6.698268652E-1,-2.813855171E0,7.678418159E-1
7.606730417E0,7.727107406E-1,-2.918956280E0,3.915219307E-1
7.611772292E0,8.943535089E-1,-2.948870659E0,4.005193710E-2
7.616814115E0,1.018372059E0,-3.044805527E0,-2.818498611E-1
7.621833281E0,1.104578257E0,-3.148856640E0,-6.658315659E-1
7.626875156E0,1.009290099E0,-3.337366581E0,-1.066708565E0
7.631916979E0,9.437430501E-1,-3.392344475E0,-1.369899511E0
7.636958802E0,8.912497163E-1,-3.476338863E0,-1.710067034E0
7.642000677E0,8.734808564E-1,-3.584376335E0,-1.998918772E0
7.647042500E0,7.779561877E-1,-3.778333187E0,-2.383026123E0
7.652122708E0,7.513533831E-1,-3.861803532E0,-2.692622900E0
7.657164531E0,7.002232075E-1,-3.836845398E0,-3.050752878E0
7.662206354E0,6.508776546E-1,-3.777494431E0,-3.522510290E0
7.667248229E0,3.926112652E-1,-3.860566616E0,-3.849936008E0
7.672290052E0,1.502735317E-1,-3.843951225E0,-4.170206070E0
7.677331875E0,3.446277231E-2,-3.763442516E0,-4.311546803E0
7.682383073E0,-2.661924958E-1,-3.733738422E0,-4.501974106E0
7.687424896E0,-6.280947924E-1,-3.666107178E0,-4.734581947E0
7.692466719E0,-9.175111055E-1,-3.543831825E0,-4.851486206E0
7.697508594E0,-1.177813888E0,-3.455538750E0,-4.864745140E0
7.702550417E0,-1.555504441E0,-3.451505184E0,-4.805443764E0
7.707592240E0,-1.833283544E0,-3.385759354E0,-4.740515232E0
7.712641250E0,-2.049854755E0,-3.229796410E0,-4.526143551E0
7.717683073E0,-2.183793545E0,-3.065434456E0,-4.176122189E0
7.722724948E0,-2.136986017E0,-2.904837132E0,-3.805043697E0
7.727766771E0,-1.995574355E0,-2.760233879E0,-3.436289549E0
7.732808646E0,-1.922249675E0,-2.603113174E0,-3.066990376E0
7.737850469E0,-1.845198631E0,-2.507866383E0,-2.524456978E0
7.742874219E0,-1.677864790E0,-2.261961937E0,-1.946701288E0
7.747916042E0,-1.547421336E0,-1.983075142E0,-1.421794653E0
7.752957865E0,-1.465985060E0,-1.812882423E0,-7.621400356E-1
7.757999740E0,-1.399803877E0,-1.517316818E0,-9.607648849E-2
7.763041562E0,-1.176506042E0,-1.115904331E0,3.471169472E-1
7.768083385E0,-8.605834842E-1,-7.092938423E-1,5.222978592E-1
7.773132760E0,-4.636805952E-1,-2.569913864E-1,7.913784981E-1
7.778174583E0,-1.981704086E-1,3.004503250E-1,1.224203110E0
7.783216406E0,6.882585585E-4,8.481063843E-1,1.234291553E0
7.788258281E0,2.382818609E-1,1.441066742E0,1.133100986E0
7.793300104E0,5.048834085E-1,2.024539948E0,8.412604332E-1
7.798341927E0,7.938408852E-1,2.582331657E0,4.632601738E-1
7.803393333E0,9.883097410E-1,3.083851814E0,2.399458885E-1
7.808435156E0,8.687799573E-1,3.615367889E0,4.604988098E-1
7.813476979E0,6.912726760E-1,4.052689552E0,2.721395493E-1
7.818518854E0,6.442946792E-1,4.374957085E0,-8.166551590E-2
7.823560625E0,6.075426936E-1,4.690096855E0,-1.583328247E-1
7.828602500E0,7.654635310E-1,4.993284225E0,-1.160244942E-1
7.833667240E0,7.923731804E-1,5.234248161E0,2.127170563E-3
7.838709062E0,6.474049091E-1,5.436879158E0,3.158626556E-1
7.843750885E0,5.308974981E-1,5.598812103E0,3.608188629E-1
7.848792760E0,3.990173340E-1,5.734329224E0,4.988265038E-1
7.853834583E0,2.629427612E-1,5.864730835E0,8.068361282E-1
7.858876406E0,6.211571768E-2,5.879485130E0,1.364534855E0
7.863933958E0,-6.994864345E-2,5.780255318E0,2.269057751E0
7.868976094E0,9.113596380E-2,5.702822685E0,2.842002392E0
7.874018177E0,2.188789248E-1,5.668152809E0,3.465343475E0
7.879060312E0,5.363757610E-1,5.625244141E0,4.104712486E0
7.884102396E0,8.602424264E-1,5.659932137E0,4.679586887E0
7.889144479E0,1.323496699E0,5.753306389E0,4.802070141E0
7.894169896E0,1.745699167E0,5.899044991E0,4.490197659E0
7.899211979E0,2.009076118E0,6.028400421E0,4.121279716E0
7.904254115E0,2.266583443E0,6.147320747E0,3.602146626E0
7.909296198E0,2.268270254E0,6.154095650E0,2.796519279E0
7.914338333E0,2.125347137E0,6.045109749E0,2.018188953E0
7.919380417E0,1.860430002E0,5.754419327E0,1.374961853E0
7.924453177E0,1.287178397E0,5.234926224E0,7.863085270E-1
7.929495312E0,3.281532228E-1,4.523689270E0,3.216760159E-1
7.934537396E0,-6.777804494E-1,3.671320915E0,4.325866699E-3
7.939579531E0,-1.595534205E0,2.692526817E0,-4.686808586E-2
7.944621615E0,-2.431020021E0,1.671164513E0,1.366500854E-1
7.949663698E0,-2.974641562E0,6.094884872E-1,6.865844727E-1
7.954672760E0,-3.313830376E0,-4.786233902E-1,1.457807779E0
7.959714844E0,-3.413125277E0,-1.445396423E0,2.420422554E0
7.964756927E0,-3.295422792E0,-2.363826275E0,3.552832365E0
7.969799062E0,-3.084362268E0,-3.221202850E0,4.698221207E0
7.974841146E0,-2.920745850E0,-3.954600811E0,5.589776039E0
7.979883281E0,-3.017995834E0,-4.455905437E0,6.358412743E0
7.984969583E0,-2.901144028E0,-4.676668644E0,7.069688797E0
7.990011719E0,-2.804399490E0,-4.818988323E0,7.045782089E0
7.995053802E0,-2.462773561E0,-4.454356194E0,6.313187122E0
8.000095937E0,-1.398097515E0,-3.443223953E0,5.039808273E0
8.005138021E0,-1.205881834E-1,-2.344643116E0,3.457536936E0
8.010180104E0,8.957784772E-1,-1.315232277E0,2.083047867E0
8.015174323E0,1.760713220E0,-2.484359741E-1,8.703899384E-1
8.020216458E0,2.613912821E0,7.411804199E-1,-3.225064278E-1
8.025258542E0,3.407134771E0,1.535008430E0,-1.328016281E0
8.030300677E0,4.168715477E0,2.066858292E0,-1.985200405E0
8.035342760E0,4.901028156E0,2.483424187E0,-2.283836842E0
8.040384844E0,5.337644100E0,2.567847252E0,-2.745687008E0
8.045465104E0,5.323697567E0,2.411653519E0,-2.957463026E0
8.050507240E0,4.919381618E0,1.971817017E0,-2.751540661E0
8.055549323E0,4.198166847E0,1.305420876E0,-2.174589872E0
8.060591458E0,3.331325769E0,5.962266922E-1,-1.567266941E0
8.065633542E0,2.554448128E0,-1.270008087E-2,-1.074105978E0
8.070675625E0,1.922053218E0,-5.815305710E-1,-6.368949413E-1
8.075719271E0,1.368960857E0,-1.081989288E0,-1.827461720E-1
8.080761354E0,8.802366853E-1,-1.521733761E0,2.893764973E-1
8.085803437E0,4.341732860E-1,-1.932225227E0,6.653537750E-1
8.090845573E0,-7.849379443E-3,-2.313787937E0,8.718841076E-1
8.095887708E0,-4.343679249E-1,-2.645144939E0,1.031742334E0
8.100929792E0,-9.343169332E-1,-3.010358810E0,1.128883600E0
8.106007865E0,-1.385952234E0,-3.373522758E0,1.129920959E0
8.111050000E0,-1.732205629E0,-3.672577381E0,1.083157539E0
8.116092083E0,-2.011667728E0,-3.869406700E0,8.237433434E-1
8.121134219E0,-2.349213600E0,-4.069379330E0,5.073535442E-1
8.126176302E0,-2.642214537E0,-4.356099606E0,1.935236454E-1
8.131218385E0,-2.922199249E0,-4.547462940E0,-2.689220905E-1
8.136238698E0,-3.112955093E0,-4.707992554E0,-6.386616230E-1
8.141280833E0,-3.236241102E0,-4.816195011E0,-9.995658398E-1
8.146322917E0,-3.294767141E0,-4.936540127E0,-1.414356232E0
8.151365052E0,-3.221513987E0,-5.001785755E0,-1.773501873E0
8.156407135E0,-3.148358345E0,-4.999887943E0,-2.048743725E0
8.161449219E0,-3.041625261E0,-5.024028778E0,-2.398617268E0
8.166526094E0,-2.586858988E0,-4.923382282E0,-2.502542019E0
8.171568229E0,-2.150017500E0,-4.808051586E0,-2.667307377E0
8.176610312E0,-1.834060788E0,-4.697103977E0,-2.933747768E0
8.181652448E0,-1.494903564E0,-4.554656506E0,-3.040906429E0
8.186694531E0,-1.141563654E0,-4.435829163E0,-2.998388290E0
8.191736615E0,-8.427135348E-1,-4.299888611E0,-3.076776028E0
8.196773125E0,-5.218486786E-1,-4.120363235E0,-3.192627430E0
8.201815260E0,-2.865270376E-1,-3.978681087E0,-3.264464378E0
8.206857344E0,-2.133400291E-1,-3.862921238E0,-3.227525473E0
8.211899479E0,-2.138597071E-1,-3.727478981E0,-3.182720184E0
8.216941562E0,-2.668754458E-1,-3.593873978E0,-3.225860357E0
8.221983646E0,-3.395033479E-1,-3.440555573E0,-3.151134491E0
8.227042708E0,-3.267398179E-1,-3.248802662E0,-2.907472134E0
8.232084844E0,-2.672599256E-1,-2.992496014E0,-2.678939819E0
8.237126927E0,-1.371228248E-1,-2.707516670E0,-2.585343838E0
8.242169062E0,-1.769484580E-2,-2.427427769E0,-2.535512447E0
8.247211146E0,1.534037590E-1,-2.030274868E0,-2.378477573E0
8.252253229E0,3.288362622E-1,-1.595119476E0,-2.212519884E0
8.257276146E0,3.413457274E-1,-1.279752254E0,-2.071515560E0
8.262318281E0,2.311991900E-1,-1.127141476E0,-1.783060074E0
8.267360365E0,1.061090678E-1,-1.096620083E0,-1.260699034E0
8.272402500E0,-5.826084316E-2,-1.066309929E0,-7.576482296E-1
8.277444583E0,-1.093112826E-1,-1.022043228E0,-2.567062378E-1
8.282486667E0,-8.091351390E-2,-8.708572388E-1,7.062506676E-2
8.287536927E0,2.870474756E-2,-6.252136230E-1,5.244574547E-1
8.292579062E0,2.384738177E-1,-3.572692871E-1,9.521238804E-1
8.297621146E0,4.432232976E-1,-1.080474854E-1,1.313732147E0
8.302663281E0,5.831688046E-1,2.204084396E-1,1.700667381E0
8.307705365E0,9.554223418E-1,7.427654266E-1,1.902556658E0
8.312747448E0,1.666036844E0,1.214696884E0,1.981991053E0
8.317791875E0,2.383534670E0,1.798875809E0,2.137909651E0
8.322834010E0,3.018391848E0,2.550590515E0,1.998463631E0
8.327876094E0,3.571593523E0,3.297647476E0,1.589684725E0
8.332918229E0,3.885636091E0,4.083539963E0,1.068828344E0
8.337960312E0,4.063884735E0,4.908717155E0,4.228897095E-1
8.343002396E0,4.221562386E0,5.570096970E0,-1.023559570E-1
8.348075312E0,4.164585590E0,6.116090775E0,-4.720427990E-1
8.353117448E0,3.990390301E0,6.513698578E0,-9.168844223E-1
8.358159531E0,3.887461662E0,6.755944252E0,-1.039679050E0
8.363201667E0,3.663918734E0,6.747162819E0,-7.710690498E-1
8.368243750E0,3.487074614E0,6.568753242E0,-3.094928265E-1
8.373285833E0,3.444871902E0,6.229972839E0,2.193338871E-1
8.378338021E0,3.427264929E0,5.866810799E0,8.981392384E-1
8.383380312E0,3.456147432E0,5.607968330E0,1.658699989E0
8.388422656E0,3.541508198E0,5.395583153E0,2.154851913E0
8.393464948E0,3.602738619E0,5.150420189E0,2.464141846E0
8.398507292E0,3.722233295E0,4.980185509E0,2.663467646E0
8.403549583E0,3.863688469E0,4.985541344E0,2.625546217E0
8.408594583E0,3.714602232E0,5.126367569E0,2.064082146E0
8.413636875E0,3.134739161E0,5.353427887E0,9.743309021E-1
8.418679219E0,2.210788965E0,5.534080505E0,-1.157796383E-1
8.423721510E0,1.163020015E0,5.487885475E0,-1.121438026E0
8.428763854E0,1.961768419E-2,5.163620949E0,-1.962245703E0
8.433806146E0,-1.391271710E0,4.653144836E0,-2.482241631E0
8.438858594E0,-3.021950960E0,3.894498825E0,-2.442643642E0
8.443900833E0,-4.403596878E0,2.995102882E0,-1.813897967E0
8.448943229E0,-5.061739445E0,2.109862328E0,-7.930955887E-1
8.453985521E0,-5.160366058E0,1.154065132E0,5.478343964E-1
8.459027865E0,-5.126316547E0,1.819114685E-1,1.986169815E0
8.464070156E0,-5.048723221E0,-7.956523895E-1,3.397795439E0
8.469108333E0,-4.846767426E0,-1.648245335E0,4.778726578E0
8.474150625E0,-4.633490086E0,-2.372451305E0,6.007598877E0
8.479192969E0,-4.478678703E0,-2.890758991E0,7.130750656E0
8.484235260E0,-4.337354183E0,-3.228198051E0,7.798502922E0
8.489277604E0,-4.121579647E0,-3.258525848E0,7.815816402E0
8.494319896E0,-3.677520990E0,-2.895728111E0,7.429225922E0
8.499347083E0,-2.829149723E0,-2.232423782E0,6.303801060E0
8.504389375E0,-2.005549431E0,-1.442390442E0,5.004519939E0
8.509431719E0,-1.550066233E0,-6.731748581E-1,3.761375666E0
8.514474010E0,-1.138566971E0,4.240989685E-3,2.574765205E0
8.519516354E0,-7.126785517E-1,6.386032104E-1,1.416290998E0
8.524558646E0,-3.264833391E-1,1.177852631E0,3.635199070E-1
8.529607865E0,-6.573212147E-2,1.431282043E0,-5.517926216E-1
8.534650156E0,7.660150528E-3,1.445077896E0,-1.173004866E0
8.539692500E0,-4.637932777E-2,1.310474396E0,-1.519763589E0
8.544734792E0,-2.086942792E-1,1.056316376E0,-1.558817625E0
8.549777135E0,-4.823636711E-1,5.651655197E-1,-1.399720788E0
8.554819427E0,-7.531138062E-1,1.990318298E-3,-1.115803719E0
8.559866927E0,-1.002337337E0,-5.186586380E-1,-7.325119972E-1
8.564909219E0,-1.134774208E0,-1.054657936E0,-2.823755741E-1
8.569951562E0,-1.140820980E0,-1.513093472E0,1.543633938E-1
8.574993854E0,-1.037492156E0,-1.836938381E0,4.732522964E-1
8.580036198E0,-8.891939521E-1,-2.119826317E0,6.126976013E-1
8.585078490E0,-8.346024752E-1,-2.390596390E0,6.568825245E-1
8.590149271E0,-8.358021975E-1,-2.661463737E0,7.907073498E-1
8.595191562E0,-8.690638542E-1,-2.939732552E0,7.846593857E-1
8.600233906E0,-8.479889631E-1,-3.110513210E0,6.747033596E-1
8.605276198E0,-7.276113033E-1,-3.221845150E0,4.586484432E-1
8.610318542E0,-6.181727052E-1,-3.266630173E0,2.825572491E-1
8.615360833E0,-5.220916271E-1,-3.314330578E0,2.912306786E-2
8.620408750E0,-2.980922163E-1,-3.340853214E0,-2.613117695E-1
8.625451042E0,-6.568887830E-2,-3.365407944E0,-5.000312328E-1
8.630493385E0,-9.265512228E-3,-3.414260864E0,-7.614319324E-1
8.635535677E0,-6.657749414E-2,-3.506407738E0,-1.012297153E0
8.640578021E0,-2.921986580E-2,-3.596371651E0,-1.166407585E0
8.645620312E0,7.417213917E-2,-3.734275341E0,-1.365326643E0
8.650666667E0,1.527934372E-1,-3.855417728E0,-1.470316172E0
8.655708958E0,3.507060707E-1,-3.854459763E0,-1.598903894E0
8.660751302E0,5.655421615E-1,-3.822329044E0,-1.777666688E0
8.665793594E0,7.449581027E-1,-3.842680931E0,-2.009217262E0
8.670835937E0,9.348281622E-1,-3.833923817E0,-2.140802622E0
8.675878229E0,9.825680256E-1,-3.839070797E0,-2.340203285E0
8.680924635E0,9.983454347E-1,-3.848458767E0,-2.516623735E0
8.685966927E0,8.956080675E-1,-3.933803082E0,-2.660702705E0
8.691009271E0,7.416063547E-1,-3.893994331E0,-2.719943047E0
8.696051562E0,5.575251579E-1,-3.815324783E0,-2.866723776E0
8.701093906E0,4.864914417E-1,-3.829154491E0,-3.264340162E0
8.706136198E0,4.639786184E-1,-3.870705128E0,-3.276194096E0
8.711182083E0,3.584331274E-1,-3.834843636E0,-3.029111862E0
8.716224375E0,1.747464091E-1,-3.798249722E0,-2.851101875E0
8.721266719E0,-1.542416215E-2,-3.794451714E0,-2.758727789E0
8.726309010E0,-2.025198042E-1,-3.710951805E0,-2.653783798E0
8.731351354E0,-3.196595311E-1,-3.552707672E0,-2.481053829E0
8.736393646E0,-4.433037639E-1,-3.360468864E0,-2.295639753E0
8.741417552E0,-5.999009609E-1,-3.194142818E0,-2.133294106E0
8.746459844E0,-7.917138934E-1,-3.001028538E0,-1.946178913E0
8.751502187E0,-1.002013922E0,-2.872150421E0,-1.647986174E0
8.756544479E0,-1.154620409E0,-2.714369774E0,-1.314831495E0
8.761586823E0,-1.283290148E0,-2.444271564E0,-9.891583920E-1
8.766629115E0,-1.455368757E0,-2.172307968E0,-7.015023232E-1
8.771676771E0,-1.546588778E0,-1.920135975E0,-4.515736103E-1
8.776719062E0,-1.504644275E0,-1.551589012E0,-2.364573479E-1
8.781761406E0,-1.432505012E0,-1.188844204E0,-4.653573036E-2
8.786803698E0,-1.389919519E0,-8.175706863E-1,1.374111176E-1
8.791846042E0,-1.348258495E0,-3.636903763E-1,3.346619606E-1
8.796888333E0,-1.317205071E0,1.175231934E-1,5.359001160E-1
8.801933698E0,-1.272910595E0,5.852861404E-1,7.316842079E-1
8.806975990E0,-1.246349692E0,1.094446182E0,9.606962204E-1
8.812018333E0,-1.141819954E0,1.673550606E0,1.093910217E0
8.817060625E0,-1.031189919E0,2.286638260E0,1.148132801E0
8.822102917E0,-9.835731387E-1,2.816431046E0,1.156960487E0
8.827145260E0,-8.792690039E-1,3.404294968E0,1.180025101E0
8.832223646E0,-8.668054342E-1,4.004817963E0,1.111772537E0
8.837265937E0,-7.834971547E-1,4.598965645E0,1.107566833E0
8.842308281E0,-7.513308525E-1,5.057589531E0,1.172036648E0
8.847350573E0,-6.746571064E-1,5.471773148E0,1.331417084E0
8.852392917E0,-6.516488791E-1,5.714701653E0,1.559425354E0
8.857435208E0,-6.968104839E-1,5.862809181E0,1.983506203E0
8.862477812E0,-7.649700046E-1,5.963684082E0,2.491787434E0
8.867520104E0,-7.269991636E-1,5.933436394E0,2.864539146E0
8.872562448E0,-6.885057092E-1,5.774280548E0,3.246275425E0
8.877604740E0,-5.990299582E-1,5.627275467E0,3.714207649E0
8.882647083E0,-4.796569049E-1,5.355695724E0,4.159040928E0
8.887689375E0,-2.921645641E-1,5.158307076E0,4.214844704E0
8.892735156E0,-1.610750854E-1,5.025786400E0,4.034676075E0
8.897777604E0,-4.985710606E-2,4.970501900E0,3.718439579E0
8.902820104E0,5.885091051E-2,4.981114388E0,3.118919611E0
8.907862552E0,1.418426037E-1,4.986642838E0,2.356600761E0
8.912905052E0,2.693850100E-1,5.069437027E0,1.527471066E0
8.917947552E0,2.245161682E-1,5.175400734E0,6.482183933E-1
8.922994219E0,8.740540594E-2,5.123518944E0,-4.408526421E-2
8.928036667E0,-1.219774857E-1,4.967428207E0,-5.184381008E-1
8.933079167E0,-5.164508820E-1,4.585554123E0,-9.747452736E-1
8.938121615E0,-1.132734179E0,4.040466309E0,-1.183764935E0
8.943164115E0,-1.770958900E0,3.385005951E0,-1.112421274E0
8.948206615E0,-2.372392178E0,2.547464371E0,-7.609260082E-1
8.953252187E0,-2.839879751E0,1.609222412E0,-1.506266594E-1
8.958294635E0,-3.052350760E0,5.917205811E-1,6.709656715E-1
8.963337135E0,-3.022350311E0,-5.460014343E-1,1.819557905E0
8.968379583E0,-2.822616577E0,-1.598929882E0,3.160752773E0
8.973422083E0,-2.492071152E0,-2.465267658E0,4.481515884E0
8.978464583E0,-2.058069944E0,-3.184780598E0,5.641440392E0
8.983515312E0,-1.370797992E0,-3.584412575E0,6.675201416E0
8.988557760E0,-4.760808349E-1,-3.577417850E0,7.514337540E0
8.993600260E0,6.142815351E-1,-3.239507675E0,7.998670578E0
8.998642708E0,1.915499926E0,-2.614698887E0,8.050807953E0
9.003685208E0,3.162891626E0,-1.844775200E0,7.700548172E0
9.008727708E0,4.120842934E0,-1.168791771E0,6.923610687E0
9.013750312E0,4.783730507E0,-5.115690231E-1,5.850115776E0
9.018792760E0,5.272502899E0,1.852779388E-1,4.636236191E0
9.023835260E0,5.638810158E0,7.936916351E-1,3.238683939E0
9.028877708E0,5.886354446E0,1.336473465E0,1.798384428E0
9.033920208E0,6.045028687E0,1.824362755E0,4.776446819E-1
9.038962708E0,5.967865467E0,2.203244209E0,-7.093670368E-1
9.044005677E0,5.787348747E0,2.440537453E0,-1.791417599E0
9.049048125E0,5.403585434E0,2.359953880E0,-2.593385458E0
9.054090625E0,4.708628654E0,2.045872688E0,-3.013499975E0
9.059133073E0,3.709041119E0,1.440815926E0,-2.936485529E0
9.064175573E0,2.710604191E0,8.484983444E-1,-2.572150230E0
9.069218073E0,1.858771086E0,2.566690445E-1,-2.219111919E0
9.074243906E0,1.186247826E0,-3.564586639E-1,-1.965055943E0
9.079286354E0,5.247012377E-1,-9.384870529E-1,-1.667828321E0
9.084328854E0,-1.074905097E-1,-1.420473099E0,-1.254481077E0
9.089371302E0,-6.511565447E-1,-1.869912624E0,-7.503445148E-1
9.094413802E0,-1.157469153E0,-2.340103626E0,-3.021612167E-1
9.099456302E0,-1.703736305E0,-2.723727226E0,1.938247681E-2
9.104546667E0,-2.151565313E0,-3.078459740E0,2.196276188E-1
9.109589115E0,-2.499874830E0,-3.361653805E0,3.452007771E-1
9.114631667E0,-2.803682566E0,-3.587905884E0,4.538974762E-1
9.119674062E0,-3.044613838E0,-3.771769524E0,4.359867573E-1
9.124716562E0,-3.239983797E0,-3.942001820E0,2.772254944E-1
9.129759062E0,-3.380450010E0,-4.070019722E0,1.023988724E-1
9.134773281E0,-3.502405643E0,-4.150972843E0,-1.246635914E-1
9.139815781E0,-3.567665577E0,-4.220753193E0,-3.705823421E-1
9.144858229E0,-3.538171768E0,-4.286366940E0,-6.166565418E-1
9.149900729E0,-3.353463411E0,-4.199440002E0,-7.577977180E-1
9.154943229E0,-3.180893898E0,-4.144190788E0,-1.053019762E0
9.159985677E0,-2.950965405E0,-4.160878658E0,-1.378600836E0
9.165055104E0,-2.684794426E0,-4.199227333E0,-1.490378141E0
9.170097552E0,-2.413145781E0,-4.168247700E0,-1.570580721E0
9.175140052E0,-2.104842663E0,-4.134914398E0,-1.712794542E0
9.180182500E0,-1.795664668E0,-4.151914597E0,-1.847451687E0
9.185225000E0,-1.497430325E0,-4.181052208E0,-1.892878175E0
9.190267500E0,-1.241131783E0,-4.184030056E0,-1.935320258E0
9.195292552E0,-9.212760925E-1,-4.184888363E0,-2.053548574E0
9.200335000E0,-6.095146537E-1,-4.111826420E0,-2.147056580E0
9.205377500E0,-3.944402337E-1,-4.084301472E0,-2.460506201E0
9.210419948E0,-1.871181428E-1,-3.956072807E0,-2.824340582E0
9.215462448E0,-1.595199108E-2,-3.777321815E0,-2.901614189E0
9.220504948E0,1.935005784E-1,-3.545623302E0,-3.097271204E0
9.225583802E0,4.796587825E-1,-3.299091816E0,-3.418906450E0
9.230626250E0,7.017462254E-1,-3.056703568E0,-3.610841036E0
9.235668750E0,8.743771315E-1,-2.851866722E0,-3.546650410E0
9.240711198E0,1.019457102E0,-2.662945271E0,-3.449321270E0
9.245753698E0,1.124746323E0,-2.420317650E0,-3.714133263E0
9.250796198E0,1.221793175E0,-2.162425041E0,-3.467167854E0
9.255843073E0,1.245851994E0,-1.978034973E0,-3.072163105E0
9.260885521E0,1.069825411E0,-1.855296612E0,-2.777583599E0
9.265927969E0,9.326179028E-1,-1.818232536E0,-2.439261913E0
9.270970469E0,7.621226311E-1,-1.780751705E0,-2.049684763E0
9.276012917E0,6.059901714E-1,-1.735975742E0,-1.629728794E0
9.281055417E0,4.801429808E-1,-1.564482212E0,-1.284170628E0
9.286077656E0,3.917348683E-1,-1.431680202E0,-1.014932156E0
9.291120104E0,4.169840515E-1,-1.158201694E0,-7.522432804E-1
9.296162656E0,5.462152362E-1,-9.286022186E-1,-5.053319931E-1
9.301205052E0,6.670244932E-1,-6.953306198E-1,-2.112243176E-1
9.306247552E0,9.090248346E-1,-2.910327911E-1,7.279682159E-2
9.311290052E0,1.109574914E0,-2.955436707E-2,2.634277344E-1
9.316336354E0,1.223701358E0,2.448043823E-1,4.205102921E-1
9.321378854E0,1.371258020E0,6.637048721E-1,4.457631111E-1
9.326421302E0,1.636544466E0,1.255793571E0,3.844676018E-1
9.331463750E0,1.792077065E0,1.808065414E0,2.746911049E-1
9.336506250E0,1.826389074E0,2.375690460E0,2.717504501E-1
9.341548750E0,1.948243856E0,3.033033371E0,2.553539276E-1
9.346616823E0,1.973109007E0,3.686820984E0,1.706409454E-2
9.351659271E0,2.013442278E0,4.275026321E0,-1.728522778E-1
9.356701771E0,2.047541618E0,4.807425499E0,-2.812209129E-1
9.361744219E0,1.974362373E0,5.284256935E0,-4.089221954E-1
9.366786719E0,1.843913317E0,5.574058533E0,-4.028890133E-1
9.371829219E0,1.830608487E0,5.746444702E0,-1.364393234E-1
9.376865521E0,1.785456777E0,5.741535187E0,2.088155746E-1
9.381907969E0,1.909076691E0,5.652420044E0,6.649012566E-1
9.386950469E0,2.186953545E0,5.600419998E0,1.374602795E0
9.391992917E0,2.360146761E0,5.493902206E0,2.009003162E0
9.397035417E0,2.552913189E0,5.303556442E0,2.519525528E0
9.402077917E0,2.866209269E0,5.265590668E0,3.087471962E0
9.407135000E0,3.132612228E0,5.171306610E0,3.359628677E0
9.412177604E0,3.487139702E0,5.078253746E0,3.379397631E0
9.417220208E0,3.969227076E0,5.153881073E0,3.264489651E0
9.422262812E0,4.274061203E0,5.266922951E0,2.879958153E0
9.427305417E0,4.490142345E0,5.375164986E0,2.190501928E0
9.432348021E0,4.620220661E0,5.611598969E0,1.379548311E0
9.437393594E0,4.415271759E0,5.910594940E0,4.360470772E-1
9.442436198E0,3.763955832E0,6.101367950E0,-5.266878605E-1
9.447478802E0,2.743341208E0,6.187823296E0,-1.323319674E0
9.452521406E0,1.548838615E0,6.061221123E0,-2.148536921E0
9.457564010E0,2.044672668E-1,5.708119392E0,-2.762127638E0
9.462606615E0,-1.304682255E0,5.243547440E0,-2.749830246E0
9.467653021E0,-2.735367298E0,4.714989662E0,-2.452788591E0
9.472695625E0,-3.784475565E0,4.069368362E0,-1.948595881E0
9.477738229E0,-4.385118484E0,3.289479256E0,-1.161595345E0
9.482780833E0,-4.653514862E0,2.465785980E0,1.239395142E-2
9.487823437E0,-4.551856041E0,1.475412369E0,1.532176495E0
9.492866042E0,-4.113743782E0,3.750324249E-1,3.232247591E0
9.497897396E0,-3.478056908E0,-7.695512772E-1,5.039100647E0
9.502940000E0,-2.826142550E0,-1.823050022E0,6.625122070E0
9.507982604E0,-2.025720835E0,-2.657750607E0,7.967436790E0
9.513025208E0,-1.353373051E0,-3.315924168E0,9.363600731E0
9.518067812E0,-9.065248966E-1,-3.844507217E0,1.050535583E1
9.523110417E0,-4.862677753E-1,-4.376032829E0,1.085407734E1
9.528147865E0,-2.770698667E-1,-4.762199402E0,1.032236385E1
9.533190469E0,-2.066943794E-1,-4.794479370E0,9.383875847E0
9.538233073E0,-1.095773280E-1,-4.541523933E0,7.699268341E0
9.543275677E0,-1.863541007E-1,-4.219867229E0,5.632102966E0
9.548318281E0,-2.471871525E-1,-3.636830330E0,3.643907547E0
9.553360885E0,-2.534691989E-1,-3.078391075E0,1.728671789E0
9.558406302E0,-2.788061798E-1,-2.464516640E0,-1.568555832E-3
9.563448906E0,-4.211710095E-1,-1.858828068E0,-1.691146016E0
9.568491510E0,-4.917356074E-1,-1.355862617E0,-3.659384727E0
9.573534115E0,-5.408596396E-1,-9.498538971E-1,-5.128793240E0
9.578576771E0,-7.577754259E-1,-6.833467484E-1,-6.118351460E0
9.583619323E0,-9.512802958E-1,-4.506769180E-1,-6.672770023E0
9.588689635E0,-1.042829990E0,-3.571023941E-1,-6.967411041E0
9.593732240E0,-9.563343525E-1,-4.171285629E-1,-6.989791870E0
9.598774844E0,-6.775676012E-1,-4.921541214E-1,-6.535761833E0
9.603817448E0,-3.093249202E-1,-5.708875656E-1,-5.725741863E0
9.608860052E0,3.615917638E-2,-6.995449066E-1,-4.622329712E0
9.613902656E0,4.982623458E-1,-8.835039139E-1,-3.539615393E0
9.618953594E0,9.960178137E-1,-1.075251579E0,-2.574314117E0
9.623996198E0,1.341073155E0,-1.241936684E0,-1.666925907E0
9.629038802E0,1.553183913E0,-1.491607666E0,-8.235225677E-1
9.634081458E0,1.668419719E0,-1.757710934E0,5.073642731E-2
9.639124010E0,1.794597864E0,-1.923620224E0,7.875356674E-1
9.644166615E0,1.838484883E0,-2.166913986E0,1.309027672E0
9.649206042E0,1.855069160E0,-2.404011250E0,1.723650455E0
9.654248646E0,1.815319180E0,-2.630464077E0,2.041779041E0
9.659291250E0,1.819788098E0,-2.683919430E0,2.292886972E0
9.664333854E0,1.791720629E0,-2.751445770E0,2.302826166E0
9.669376458E0,1.634812117E0,-2.811475754E0,2.110011339E0
9.674419115E0,1.410876751E0,-2.892684937E0,1.874777317E0
9.679470469E0,1.234660506E0,-3.004426003E0,1.637322903E0
9.684513073E0,1.058226585E0,-3.148859501E0,1.303824425E0
9.689555677E0,9.222052097E-1,-3.227666378E0,9.098222256E-1
9.694598333E0,8.119367361E-1,-3.269436836E0,4.214041233E-1
9.699640885E0,7.274840474E-1,-3.247651100E0,-1.044821739E-1
9.704683490E0,6.570050120E-1,-3.260150433E0,-6.039745808E-1
9.709724479E0,6.367094517E-1,-3.268298149E0,-1.250102282E0
9.714767083E0,5.304337740E-1,-3.231322289E0,-1.432837009E0
9.719809687E0,3.602671623E-1,-3.208885193E0,-1.772911072E0
9.724852292E0,2.892602980E-1,-3.224359512E0,-2.359921932E0
9.729894896E0,1.426298022E-1,-3.203163147E0,-2.952797174E0
9.734937500E0,-5.561214313E-2,-3.192949772E0,-3.332007647E0
9.739956823E0,-3.416350186E-1,-3.229330540E0,-3.668319464E0
9.744999427E0,-5.236184001E-1,-3.225970268E0,-3.799443245E0
9.750042031E0,-8.002321124E-1,-3.211649418E0,-3.775821924E0
9.755084635E0,-1.066177249E0,-3.205187321E0,-3.962081671E0
9.760127240E0,-1.206890106E0,-3.268725395E0,-4.073338032E0
9.765169844E0,-1.349702239E0,-3.265745640E0,-4.033208370E0
9.770216979E0,-1.470449090E0,-3.167815685E0,-3.702584743E0
9.775259583E0,-1.559115171E0,-3.143017769E0,-3.047108173E0
9.780302187E0,-1.676217437E0,-3.112362862E0,-2.789537907E0
9.785344792E0,-1.730930448E0,-3.004378319E0,-2.462100506E0
9.790387396E0,-1.749567032E0,-2.946052074E0,-2.134014130E0
9.795430052E0,-1.724527955E0,-2.770277023E0,-1.512370348E0
9.800476406E0,-1.945870876E0,-2.566077232E0,-1.187691927E0
9.805519010E0,-2.222988605E0,-2.374081612E0,-1.212458134E0
9.810561615E0,-2.467987776E0,-2.160652161E0,-1.163081646E0
9.815604271E0,-2.679144382E0,-1.933092117E0,-1.005980253E0
9.820646823E0,-2.904518127E0,-1.624685764E0,-4.632256031E-1
9.825689427E0,-3.161619663E0,-1.338543892E0,-1.451578140E-1
9.830718229E0,-3.209207058E0,-1.036478519E0,1.592488289E-1
9.835760781E0,-3.105374813E0,-7.210206985E-1,5.196065903E-1
9.840803437E0,-2.904823780E0,-3.759117126E-1,1.228715420E0
9.845846042E0,-2.546935797E0,1.464805603E-1,2.158329487E0
9.850888646E0,-2.168472290E0,5.583639145E-1,2.509993553E0
9.855931250E0,-1.659165144E0,1.144365311E0,2.863834858E0
9.861015208E0,-1.011189938E0,1.827659607E0,3.188845158E0
9.866057812E0,-2.012693584E-1,2.643779755E0,3.523838997E0
9.871100417E0,4.027339816E-1,3.372149467E0,3.847889900E0
9.876143021E0,1.050493360E0,4.082449913E0,3.722812653E0
9.881185625E0,1.580024958E0,4.767769814E0,3.373600960E0
9.886228229E0,1.948890686E0,5.471679688E0,2.969473839E0
9.891273125E0,2.282132387E0,6.185010910E0,2.447466373E0
9.896315729E0,2.534653425E0,6.788424492E0,1.869354725E0
9.901358333E0,2.548207521E0,7.198650360E0,1.375730038E0
9.906400937E0,2.272463322E0,7.382523537E0,9.017629623E-1
9.911443542E0,1.680014968E0,7.316517830E0,3.491663933E-1
9.916486198E0,9.556664824E-1,7.130370140E0,-1.531755924E-1
9.921530365E0,1.174986735E-1,6.781166077E0,-4.305927753E-1
9.926573073E0,-5.936531425E-1,6.281326294E0,-5.986936092E-1
9.931615781E0,-1.142922878E0,5.717425346E0,-6.629040241E-1
9.936658490E0,-1.406269312E0,5.194977760E0,-6.571724415E-1
9.941701146E0,-1.392971873E0,4.769185066E0,-4.887583256E-1
9.946743906E0,-1.239022017E0,4.430592537E0,-2.541105747E-1
9.951790000E0,-8.814889789E-1,4.205709457E0,-1.215207577E-1
9.956832708E0,-2.808091044E-1,4.180987358E0,-4.422831535E-2
9.961875417E0,4.060978293E-1,4.354053497E0,5.597972870E-2
9.966918125E0,1.094295263E0,4.564502716E0,2.239894867E-1
9.971960833E0,1.572067142E0,4.640135765E0,4.831445217E-1
9.977003542E0,1.706053615E0,4.439903259E0,7.758738995E-1
9.982051354E0,1.549201727E0,4.019322395E0,9.844093323E-1
9.987094062E0,1.127949953E0,3.400197029E0,1.204469919E0
9.992136719E0,6.001930237E-1,2.738260269E0,1.622671366E0
9.997179479E0,-8.759441972E-2,1.918740273E0,1.942102909E0
1.000222219E1,-6.171773672E-1,1.063512802E0,2.663781643E0
1.000726490E1,-1.051112294E0,1.460494995E-1,3.486427069E0
1.001228448E1,-1.404495358E0,-8.147325516E-1,4.140399933E0
1.001732714E1,-1.572711229E0,-1.929385185E0,4.921648026E0
1.002236990E1,-1.668736577E0,-2.834769249E0,5.819872379E0
1.002741260E1,-1.817765832E0,-3.668480873E0,6.746447086E0
1.003245531E1,-1.856452346E0,-4.354974747E0,7.165410995E0
1.003749802E1,-1.762485385E0,-4.773117065E0,7.368697166E0
1.004256443E1,-1.567893147E0,-4.957452297E0,7.444536686E0
1.004760714E1,-1.131927252E0,-4.831773758E0,7.120621204E0
1.005264984E1,-4.908248782E-1,-4.453342915E0,6.106807232E0
1.005769255E1,1.569876671E-1,-3.812264919E0,4.658594131E0
1.006273526E1,8.810454607E-1,-3.051647663E0,3.332328796E0
1.006777797E1,1.598111153E0,-2.223887920E0,2.174975872E0
1.007277912E1,2.307145596E0,-1.378549099E0,8.973798752E-1
1.007782182E1,3.113958836E0,-4.193830490E-1,-5.208172798E-1
1.008286453E1,3.843068361E0,4.868869781E-1,-1.780511618E0
1.008790724E1,4.395914555E0,1.178477287E0,-2.729049921E0
1.009294995E1,4.843858719E0,1.766361237E0,-3.543852568E0
1.009799266E1,5.135940075E0,2.227258682E0,-4.090856552E0
1.010308662E1,5.443193913E0,2.485111237E0,-4.604109764E0
1.010812932E1,5.503682613E0,2.554807663E0,-4.786068439E0
1.011317203E1,5.219881058E0,2.481845856E0,-4.459898949E0
1.011821469E1,4.618177414E0,2.189395905E0,-3.986253500E0
1.012325745E1,3.829285383E0,1.770455360E0,-3.344178677E0
1.012830016E1,2.964709759E0,1.217514992E0,-2.630179882E0
1.013334594E1,2.138719082E0,6.882419586E-1,-1.828515887E0
1.013838865E1,1.338505745E0,1.655817032E-1,-1.072156429E0
1.014343135E1,5.846053362E-1,-2.982292175E-1,-3.452332020E-1
1.014847406E1,-4.723531008E-2,-7.155408859E-1,2.840447426E-1
1.015351677E1,-6.246700883E-1,-1.117824554E0,8.263871670E-1
1.015855948E1,-1.086051702E0,-1.476659775E0,1.208577871E0
1.016360906E1,-1.671597719E0,-1.727799416E0,1.575282335E0
1.016865177E1,-2.161627769E0,-2.046296597E0,1.912899256E0
1.017369448E1,-2.448689222E0,-2.281489372E0,2.173945665E0
1.017873719E1,-2.666877747E0,-2.536363602E0,2.171803474E0
1.018377990E1,-2.941272020E0,-2.822986603E0,2.096127987E0
1.018882260E1,-3.142904758E0,-3.050624371E0,2.100641966E0
1.019385521E1,-3.242769003E0,-3.212315559E0,1.984510660E0
1.019889792E1,-3.296407700E0,-3.420479774E0,1.625539541E0
1.020394063E1,-3.474291563E0,-3.675131798E0,1.469209194E0
1.020898333E1,-3.515340567E0,-3.892633915E0,1.326588869E0
1.021402604E1,-3.494005680E0,-4.034496307E0,1.034286022E0
1.021906870E1,-3.472802162E0,-4.217897892E0,5.609960556E-1
1.022412500E1,-3.492548466E0,-4.394783020E0,2.367219925E-1
1.022916771E1,-3.325588465E0,-4.433581352E0,6.366324425E-2
1.023421037E1,-2.930760145E0,-4.391751289E0,-2.506330013E-1
1.023925313E1,-2.657308578E0,-4.367206097E0,-7.234716415E-1
1.024429578E1,-2.474119186E0,-4.417103291E0,-1.106425047E0
1.024933854E1,-2.362245560E0,-4.512586594E0,-1.394931793E0
1.025433484E1,-2.148848295E0,-4.474072933E0,-1.625242352E0
1.025937755E1,-1.870007992E0,-4.394909859E0,-2.005903482E0
1.026442026E1,-1.535229206E0,-4.231884003E0,-2.324312687E0
1.026946297E1,-1.257021189E0,-4.118912220E0,-2.679085493E0
1.027450568E1,-9.559793472E-1,-3.950557709E0,-2.900611401E0
1.027954838E1,-6.606277227E-1,-3.688470840E0,-3.171287775E0
1.028461969E1,-4.501442909E-1,-3.476205826E0,-3.421965599E0
